"success","timeout","failed_images","failed_audio","failed_video","trial_type","trial_index","time_elapsed","internal_node_id","participant_id","view_history","rt","item_width_mm","item_height_mm","item_width_px","px2mm","view_dist_mm","item_width_deg","px2deg","win_width_deg","win_height_deg","stimulus","response","response_type","key_press","avg_frame_time","center_x","center_y","correct_response"
"true","false","[]","[]","[]","preload","0","33","0.0-0.0","376785","","","","","","","","","","","","","","","","","","",""
"","","","","","instructions","1","20243","0.0-1.0","376785","[{""page_index"":0,""viewing_time"":16483},{""page_index"":1,""viewing_time"":1642},{""page_index"":2,""viewing_time"":2084}]","20209","","","","","","","","","","","","","","","","",""
"true","","","","","fullscreen","2","22937","0.0-2.0","376785","","","","","","","","","","","","","","","","","","",""
"","","","","","virtual-chinrest","3","144131","0.0-3.0","376785","","121191","85.6","53.98","392","4.58","569.02","8.6030380721392","45.565298759921305","33.709863466341346","18.96179819981701","","","","","","","",""
"","","","","","html-keyboard-response","4","146619","0.0-4.0","376785","","2487","","","","","","","","","","This is just trial run, press Space bar to continue"," ","","","","","",""
"","","","","","psychophysics","5","163835","0.0-5.0-0.0","376785","","17211","","","","","","","","","","","0","key","0","16.66634011627907","768","250","1"
"","","","","","psychophysics","6","166640","0.0-5.0-1.0","376785","","2801","","","","","","","","","","","1","key","1","16.666767857142812","768","250","1"
"","","","","","psychophysics","7","168618","0.0-5.0-2.0","376785","","1973","","","","","","","","","","","0","key","0","16.66542735042744","768","250","0"
"","","","","","psychophysics","8","170307","0.0-5.0-3.0","376785","","1685","","","","","","","","","","","2","key","2","16.66673267326729","768","250","1"
"","","","","","psychophysics","9","172143","0.0-5.0-4.0","376785","","1835","","","","","","","","","","","1","key","1","16.66620183486247","768","250","1"
"","","","","","psychophysics","10","173750","0.0-5.0-5.0","376785","","1605","","","","","","","","","","","1","key","1","16.66633684210522","768","250","1"
"","","","","","psychophysics","11","175921","0.0-5.0-6.0","376785","","2165","","","","","","","","","","","2","key","2","16.666730769230902","768","250","1"
"","","","","","psychophysics","12","177640","0.0-5.0-7.0","376785","","1715","","","","","","","","","","","0","key","0","16.666911764705826","768","250","0"
"","","","","","html-keyboard-response","13","180729","0.0-6.0","376785","","3088","","","","","","","","","","You have successfully completed the pilot , Press Space bar to continue to main block of experiment"," ","","","","","",""
"","","","","","psychophysics","14","182819","0.0-7.0-0.0","376785","","2086","","","","","","","","","","","1","key","1","16.665232000000078","768","250","1"
"","","","","","html-keyboard-response","15","187492","0.0-7.0-1.0","376785","","4671","","","","","","","","","","
    <p>How confident are you in your response? Press the corresponding keys from 1 to 5 based on your experience</p>
    <ul id=""confidence-levels"">
      <li id=""conf-1"">1: Not at all confident</li>
      <li id=""conf-2"">2: Slightly confident</li>
      <li id=""conf-3"">3: Somewhat confident</li>
      <li id=""conf-4"">4: Very confident</li>
      <li id=""conf-5"">5: Completely confident</li>
    </ul>","2","","","","","",""
"","","","","","psychophysics","16","189336","0.0-7.0-2.0","376785","","1838","","","","","","","","","","","1","key","1","16.659581818181852","768","250","0"
"","","","","","html-keyboard-response","17","193853","0.0-7.0-3.0","376785","","4517","","","","","","","","","","
    <p>How confident are you in your response? Press the corresponding keys from 1 to 5 based on your experience</p>
    <ul id=""confidence-levels"">
      <li id=""conf-1"">1: Not at all confident</li>
      <li id=""conf-2"">2: Slightly confident</li>
      <li id=""conf-3"">3: Somewhat confident</li>
      <li id=""conf-4"">4: Very confident</li>
      <li id=""conf-5"">5: Completely confident</li>
    </ul>","3","","","","","",""
"","","","","","psychophysics","18","195518","0.0-7.0-4.0","376785","","1662","","","","","","","","","","","1","key","1","16.659808080808045","768","250","1"
"","","","","","html-keyboard-response","19","201027","0.0-7.0-5.0","376785","","5509","","","","","","","","","","
    <p>How confident are you in your response? Press the corresponding keys from 1 to 5 based on your experience</p>
    <ul id=""confidence-levels"">
      <li id=""conf-1"">1: Not at all confident</li>
      <li id=""conf-2"">2: Slightly confident</li>
      <li id=""conf-3"">3: Somewhat confident</li>
      <li id=""conf-4"">4: Very confident</li>
      <li id=""conf-5"">5: Completely confident</li>
    </ul>","3","","","","","",""
"","","","","","psychophysics","20","202514","0.0-7.0-6.0","376785","","1483","","","","","","","","","","","2","key","2","16.652764044943712","768","250","1"
"","","","","","html-keyboard-response","21","204017","0.0-7.0-7.0","376785","","1502","","","","","","","","","","
    <p>How confident are you in your response? Press the corresponding keys from 1 to 5 based on your experience</p>
    <ul id=""confidence-levels"">
      <li id=""conf-1"">1: Not at all confident</li>
      <li id=""conf-2"">2: Slightly confident</li>
      <li id=""conf-3"">3: Somewhat confident</li>
      <li id=""conf-4"">4: Very confident</li>
      <li id=""conf-5"">5: Completely confident</li>
    </ul>","4","","","","","",""
"","","","","","psychophysics","22","206473","0.0-7.0-8.0","376785","","2451","","","","","","","","","","","1","key","1","16.66371621621609","768","250","1"
"","","","","","html-keyboard-response","23","207762","0.0-7.0-9.0","376785","","1289","","","","","","","","","","
    <p>How confident are you in your response? Press the corresponding keys from 1 to 5 based on your experience</p>
    <ul id=""confidence-levels"">
      <li id=""conf-1"">1: Not at all confident</li>
      <li id=""conf-2"">2: Slightly confident</li>
      <li id=""conf-3"">3: Somewhat confident</li>
      <li id=""conf-4"">4: Very confident</li>
      <li id=""conf-5"">5: Completely confident</li>
    </ul>","5","","","","","",""
"","","","","","psychophysics","24","209383","0.0-7.0-10.0","376785","","1618","","","","","","","","","","","0","key","0","16.667113402061773","768","250","0"
"","","","","","html-keyboard-response","25","210979","0.0-7.0-11.0","376785","","1596","","","","","","","","","","
    <p>How confident are you in your response? Press the corresponding keys from 1 to 5 based on your experience</p>
    <ul id=""confidence-levels"">
      <li id=""conf-1"">1: Not at all confident</li>
      <li id=""conf-2"">2: Slightly confident</li>
      <li id=""conf-3"">3: Somewhat confident</li>
      <li id=""conf-4"">4: Very confident</li>
      <li id=""conf-5"">5: Completely confident</li>
    </ul>","5","","","","","",""
"","","","","","psychophysics","26","212701","0.0-7.0-12.0","376785","","1719","","","","","","","","","","","1","key","1","16.665592233009537","768","250","1"
"","","","","","html-keyboard-response","27","213951","0.0-7.0-13.0","376785","","1250","","","","","","","","","","
    <p>How confident are you in your response? Press the corresponding keys from 1 to 5 based on your experience</p>
    <ul id=""confidence-levels"">
      <li id=""conf-1"">1: Not at all confident</li>
      <li id=""conf-2"">2: Slightly confident</li>
      <li id=""conf-3"">3: Somewhat confident</li>
      <li id=""conf-4"">4: Very confident</li>
      <li id=""conf-5"">5: Completely confident</li>
    </ul>","5","","","","","",""
"","","","","","psychophysics","28","216478","0.0-7.0-14.0","376785","","2522","","","","","","","","","","","2","key","2","16.775960264900746","768","250","1"
"","","","","","html-keyboard-response","29","217959","0.0-7.0-15.0","376785","","1480","","","","","","","","","","
    <p>How confident are you in your response? Press the corresponding keys from 1 to 5 based on your experience</p>
    <ul id=""confidence-levels"">
      <li id=""conf-1"">1: Not at all confident</li>
      <li id=""conf-2"">2: Slightly confident</li>
      <li id=""conf-3"">3: Somewhat confident</li>
      <li id=""conf-4"">4: Very confident</li>
      <li id=""conf-5"">5: Completely confident</li>
    </ul>","4","","","","","",""
"","","","","","psychophysics","30","219612","0.0-7.0-16.0","376785","","1651","","","","","","","","","","","1","key","1","16.666232323232272","768","250","1"
"","","","","","html-keyboard-response","31","220844","0.0-7.0-17.0","376785","","1231","","","","","","","","","","
    <p>How confident are you in your response? Press the corresponding keys from 1 to 5 based on your experience</p>
    <ul id=""confidence-levels"">
      <li id=""conf-1"">1: Not at all confident</li>
      <li id=""conf-2"">2: Slightly confident</li>
      <li id=""conf-3"">3: Somewhat confident</li>
      <li id=""conf-4"">4: Very confident</li>
      <li id=""conf-5"">5: Completely confident</li>
    </ul>","5","","","","","",""
"","","","","","psychophysics","32","222439","0.0-7.0-18.0","376785","","1592","","","","","","","","","","","1","key","1","16.664250000000113","768","250","1"
"","","","","","html-keyboard-response","33","223945","0.0-7.0-19.0","376785","","1505","","","","","","","","","","
    <p>How confident are you in your response? Press the corresponding keys from 1 to 5 based on your experience</p>
    <ul id=""confidence-levels"">
      <li id=""conf-1"">1: Not at all confident</li>
      <li id=""conf-2"">2: Slightly confident</li>
      <li id=""conf-3"">3: Somewhat confident</li>
      <li id=""conf-4"">4: Very confident</li>
      <li id=""conf-5"">5: Completely confident</li>
    </ul>","4","","","","","",""
"","","","","","psychophysics","34","226021","0.0-7.0-20.0","376785","","2073","","","","","","","","","","","1","key","1","16.664591999999946","768","250","1"
"","","","","","html-keyboard-response","35","227443","0.0-7.0-21.0","376785","","1420","","","","","","","","","","
    <p>How confident are you in your response? Press the corresponding keys from 1 to 5 based on your experience</p>
    <ul id=""confidence-levels"">
      <li id=""conf-1"">1: Not at all confident</li>
      <li id=""conf-2"">2: Slightly confident</li>
      <li id=""conf-3"">3: Somewhat confident</li>
      <li id=""conf-4"">4: Very confident</li>
      <li id=""conf-5"">5: Completely confident</li>
    </ul>","5","","","","","",""
"","","","","","psychophysics","36","228998","0.0-7.0-22.0","376785","","1550","","","","","","","","","","","1","key","1","16.666139784946246","768","250","1"
"","","","","","html-keyboard-response","37","230476","0.0-7.0-23.0","376785","","1475","","","","","","","","","","
    <p>How confident are you in your response? Press the corresponding keys from 1 to 5 based on your experience</p>
    <ul id=""confidence-levels"">
      <li id=""conf-1"">1: Not at all confident</li>
      <li id=""conf-2"">2: Slightly confident</li>
      <li id=""conf-3"">3: Somewhat confident</li>
      <li id=""conf-4"">4: Very confident</li>
      <li id=""conf-5"">5: Completely confident</li>
    </ul>","5","","","","","",""
"","","","","","psychophysics","38","231860","0.0-7.0-24.0","376785","","1381","","","","","","","","","","","0","key","0","16.669554216867517","768","250","0"
"","","","","","html-keyboard-response","39","232315","0.0-7.0-25.0","376785","","453","","","","","","","","","","
    <p>How confident are you in your response? Press the corresponding keys from 1 to 5 based on your experience</p>
    <ul id=""confidence-levels"">
      <li id=""conf-1"">1: Not at all confident</li>
      <li id=""conf-2"">2: Slightly confident</li>
      <li id=""conf-3"">3: Somewhat confident</li>
      <li id=""conf-4"">4: Very confident</li>
      <li id=""conf-5"">5: Completely confident</li>
    </ul>","5","","","","","",""
"","","","","","psychophysics","40","236771","0.0-7.0-26.0","376785","","4454","","","","","","","","","","","1","key","1","16.664518656716364","768","250","1"
"","","","","","html-keyboard-response","41","237771","0.0-7.0-27.0","376785","","999","","","","","","","","","","
    <p>How confident are you in your response? Press the corresponding keys from 1 to 5 based on your experience</p>
    <ul id=""confidence-levels"">
      <li id=""conf-1"">1: Not at all confident</li>
      <li id=""conf-2"">2: Slightly confident</li>
      <li id=""conf-3"">3: Somewhat confident</li>
      <li id=""conf-4"">4: Very confident</li>
      <li id=""conf-5"">5: Completely confident</li>
    </ul>","4","","","","","",""
"","","","","","psychophysics","42","239135","0.0-7.0-28.0","376785","","1359","","","","","","","","","","","1","key","1","16.663231707316832","768","250","1"
"","","","","","html-keyboard-response","43","240192","0.0-7.0-29.0","376785","","1056","","","","","","","","","","
    <p>How confident are you in your response? Press the corresponding keys from 1 to 5 based on your experience</p>
    <ul id=""confidence-levels"">
      <li id=""conf-1"">1: Not at all confident</li>
      <li id=""conf-2"">2: Slightly confident</li>
      <li id=""conf-3"">3: Somewhat confident</li>
      <li id=""conf-4"">4: Very confident</li>
      <li id=""conf-5"">5: Completely confident</li>
    </ul>","4","","","","","",""
"","","","","","psychophysics","44","241811","0.0-7.0-30.0","376785","","1615","","","","","","","","","","","2","key","2","16.663546391752593","768","250","1"
"","","","","","html-keyboard-response","45","242220","0.0-7.0-31.0","376785","","408","","","","","","","","","","
    <p>How confident are you in your response? Press the corresponding keys from 1 to 5 based on your experience</p>
    <ul id=""confidence-levels"">
      <li id=""conf-1"">1: Not at all confident</li>
      <li id=""conf-2"">2: Slightly confident</li>
      <li id=""conf-3"">3: Somewhat confident</li>
      <li id=""conf-4"">4: Very confident</li>
      <li id=""conf-5"">5: Completely confident</li>
    </ul>","5","","","","","",""
"","","","","","psychophysics","46","244128","0.0-7.0-32.0","376785","","1904","","","","","","","","","","","1","key","1","16.66579824561389","768","250","1"
"","","","","","html-keyboard-response","47","245417","0.0-7.0-33.0","376785","","1288","","","","","","","","","","
    <p>How confident are you in your response? Press the corresponding keys from 1 to 5 based on your experience</p>
    <ul id=""confidence-levels"">
      <li id=""conf-1"">1: Not at all confident</li>
      <li id=""conf-2"">2: Slightly confident</li>
      <li id=""conf-3"">3: Somewhat confident</li>
      <li id=""conf-4"">4: Very confident</li>
      <li id=""conf-5"">5: Completely confident</li>
    </ul>","5","","","","","",""
"","","","","","psychophysics","48","246968","0.0-7.0-34.0","376785","","1549","","","","","","","","","","","1","key","1","16.666225806451326","768","250","1"
"","","","","","html-keyboard-response","49","247522","0.0-7.0-35.0","376785","","552","","","","","","","","","","
    <p>How confident are you in your response? Press the corresponding keys from 1 to 5 based on your experience</p>
    <ul id=""confidence-levels"">
      <li id=""conf-1"">1: Not at all confident</li>
      <li id=""conf-2"">2: Slightly confident</li>
      <li id=""conf-3"">3: Somewhat confident</li>
      <li id=""conf-4"">4: Very confident</li>
      <li id=""conf-5"">5: Completely confident</li>
    </ul>","5","","","","","",""
"","","","","","psychophysics","50","248997","0.0-7.0-36.0","376785","","1472","","","","","","","","","","","2","key","2","16.665647727272617","768","250","1"
"","","","","","html-keyboard-response","51","249247","0.0-7.0-37.0","376785","","249","","","","","","","","","","
    <p>How confident are you in your response? Press the corresponding keys from 1 to 5 based on your experience</p>
    <ul id=""confidence-levels"">
      <li id=""conf-1"">1: Not at all confident</li>
      <li id=""conf-2"">2: Slightly confident</li>
      <li id=""conf-3"">3: Somewhat confident</li>
      <li id=""conf-4"">4: Very confident</li>
      <li id=""conf-5"">5: Completely confident</li>
    </ul>","5","","","","","",""
"","","","","","psychophysics","52","250408","0.0-7.0-38.0","376785","","1158","","","","","","","","","","","0","key","0","16.663842857142612","768","250","0"
"","","","","","html-keyboard-response","53","250662","0.0-7.0-39.0","376785","","254","","","","","","","","","","
    <p>How confident are you in your response? Press the corresponding keys from 1 to 5 based on your experience</p>
    <ul id=""confidence-levels"">
      <li id=""conf-1"">1: Not at all confident</li>
      <li id=""conf-2"">2: Slightly confident</li>
      <li id=""conf-3"">3: Somewhat confident</li>
      <li id=""conf-4"">4: Very confident</li>
      <li id=""conf-5"">5: Completely confident</li>
    </ul>","5","","","","","",""
"","","","","","psychophysics","54","251987","0.0-7.0-40.0","376785","","1322","","","","","","","","","","","2","key","2","16.666249999999856","768","250","1"
"","","","","","html-keyboard-response","55","252240","0.0-7.0-41.0","376785","","252","","","","","","","","","","
    <p>How confident are you in your response? Press the corresponding keys from 1 to 5 based on your experience</p>
    <ul id=""confidence-levels"">
      <li id=""conf-1"">1: Not at all confident</li>
      <li id=""conf-2"">2: Slightly confident</li>
      <li id=""conf-3"">3: Somewhat confident</li>
      <li id=""conf-4"">4: Very confident</li>
      <li id=""conf-5"">5: Completely confident</li>
    </ul>","5","","","","","",""
"","","","","","psychophysics","56","253595","0.0-7.0-42.0","376785","","1353","","","","","","","","","","","0","key","0","16.667222222222023","768","250","0"
"","","","","","html-keyboard-response","57","253808","0.0-7.0-43.0","376785","","212","","","","","","","","","","
    <p>How confident are you in your response? Press the corresponding keys from 1 to 5 based on your experience</p>
    <ul id=""confidence-levels"">
      <li id=""conf-1"">1: Not at all confident</li>
      <li id=""conf-2"">2: Slightly confident</li>
      <li id=""conf-3"">3: Somewhat confident</li>
      <li id=""conf-4"">4: Very confident</li>
      <li id=""conf-5"">5: Completely confident</li>
    </ul>","5","","","","","",""
"","","","","","psychophysics","58","255154","0.0-7.0-44.0","376785","","1344","","","","","","","","","","","1","key","1","16.665098765432003","768","250","1"
"","","","","","html-keyboard-response","59","255908","0.0-7.0-45.0","376785","","754","","","","","","","","","","
    <p>How confident are you in your response? Press the corresponding keys from 1 to 5 based on your experience</p>
    <ul id=""confidence-levels"">
      <li id=""conf-1"">1: Not at all confident</li>
      <li id=""conf-2"">2: Slightly confident</li>
      <li id=""conf-3"">3: Somewhat confident</li>
      <li id=""conf-4"">4: Very confident</li>
      <li id=""conf-5"">5: Completely confident</li>
    </ul>","5","","","","","",""
"","","","","","psychophysics","60","257206","0.0-7.0-46.0","376785","","1295","","","","","","","","","","","1","key","1","16.66347435897422","768","250","1"
"","","","","","html-keyboard-response","61","257476","0.0-7.0-47.0","376785","","269","","","","","","","","","","
    <p>How confident are you in your response? Press the corresponding keys from 1 to 5 based on your experience</p>
    <ul id=""confidence-levels"">
      <li id=""conf-1"">1: Not at all confident</li>
      <li id=""conf-2"">2: Slightly confident</li>
      <li id=""conf-3"">3: Somewhat confident</li>
      <li id=""conf-4"">4: Very confident</li>
      <li id=""conf-5"">5: Completely confident</li>
    </ul>","5","","","","","",""
"","","","","","psychophysics","62","258748","0.0-7.0-48.0","376785","","1270","","","","","","","","","","","1","key","1","16.667631578947248","768","250","1"
"","","","","","html-keyboard-response","63","259215","0.0-7.0-49.0","376785","","466","","","","","","","","","","
    <p>How confident are you in your response? Press the corresponding keys from 1 to 5 based on your experience</p>
    <ul id=""confidence-levels"">
      <li id=""conf-1"">1: Not at all confident</li>
      <li id=""conf-2"">2: Slightly confident</li>
      <li id=""conf-3"">3: Somewhat confident</li>
      <li id=""conf-4"">4: Very confident</li>
      <li id=""conf-5"">5: Completely confident</li>
    </ul>","5","","","","","",""
"","","","","","psychophysics","64","260362","0.0-7.0-50.0","376785","","1143","","","","","","","","","","","2","key","2","16.66811594202907","768","250","1"
"","","","","","html-keyboard-response","65","260612","0.0-7.0-51.0","376785","","249","","","","","","","","","","
    <p>How confident are you in your response? Press the corresponding keys from 1 to 5 based on your experience</p>
    <ul id=""confidence-levels"">
      <li id=""conf-1"">1: Not at all confident</li>
      <li id=""conf-2"">2: Slightly confident</li>
      <li id=""conf-3"">3: Somewhat confident</li>
      <li id=""conf-4"">4: Very confident</li>
      <li id=""conf-5"">5: Completely confident</li>
    </ul>","5","","","","","",""
"","","","","","psychophysics","66","262482","0.0-7.0-52.0","376785","","1864","","","","","","","","","","","2","key","2","16.66498214285743","768","250","1"
"","","","","","html-keyboard-response","67","262735","0.0-7.0-53.0","376785","","253","","","","","","","","","","
    <p>How confident are you in your response? Press the corresponding keys from 1 to 5 based on your experience</p>
    <ul id=""confidence-levels"">
      <li id=""conf-1"">1: Not at all confident</li>
      <li id=""conf-2"">2: Slightly confident</li>
      <li id=""conf-3"">3: Somewhat confident</li>
      <li id=""conf-4"">4: Very confident</li>
      <li id=""conf-5"">5: Completely confident</li>
    </ul>","5","","","","","",""
"","","","","","psychophysics","68","263820","0.0-7.0-54.0","376785","","1082","","","","","","","","","","","0","key","0","16.663938461538727","768","250","0"
"","","","","","html-keyboard-response","69","264068","0.0-7.0-55.0","376785","","248","","","","","","","","","","
    <p>How confident are you in your response? Press the corresponding keys from 1 to 5 based on your experience</p>
    <ul id=""confidence-levels"">
      <li id=""conf-1"">1: Not at all confident</li>
      <li id=""conf-2"">2: Slightly confident</li>
      <li id=""conf-3"">3: Somewhat confident</li>
      <li id=""conf-4"">4: Very confident</li>
      <li id=""conf-5"">5: Completely confident</li>
    </ul>","5","","","","","",""
"","","","","","psychophysics","70","265579","0.0-7.0-56.0","376785","","1509","","","","","","","","","","","0","key","0","16.666033333333647","768","250","0"
"","","","","","html-keyboard-response","71","265857","0.0-7.0-57.0","376785","","277","","","","","","","","","","
    <p>How confident are you in your response? Press the corresponding keys from 1 to 5 based on your experience</p>
    <ul id=""confidence-levels"">
      <li id=""conf-1"">1: Not at all confident</li>
      <li id=""conf-2"">2: Slightly confident</li>
      <li id=""conf-3"">3: Somewhat confident</li>
      <li id=""conf-4"">4: Very confident</li>
      <li id=""conf-5"">5: Completely confident</li>
    </ul>","5","","","","","",""
"","","","","","psychophysics","72","267177","0.0-7.0-58.0","376785","","1317","","","","","","","","","","","1","key","1","16.666886075949474","768","250","1"
"","","","","","html-keyboard-response","73","267507","0.0-7.0-59.0","376785","","330","","","","","","","","","","
    <p>How confident are you in your response? Press the corresponding keys from 1 to 5 based on your experience</p>
    <ul id=""confidence-levels"">
      <li id=""conf-1"">1: Not at all confident</li>
      <li id=""conf-2"">2: Slightly confident</li>
      <li id=""conf-3"">3: Somewhat confident</li>
      <li id=""conf-4"">4: Very confident</li>
      <li id=""conf-5"">5: Completely confident</li>
    </ul>","5","","","","","",""
"","","","","","psychophysics","74","268821","0.0-7.0-60.0","376785","","1312","","","","","","","","","","","1","key","1","16.664949367088827","768","250","1"
"","","","","","html-keyboard-response","75","269177","0.0-7.0-61.0","376785","","355","","","","","","","","","","
    <p>How confident are you in your response? Press the corresponding keys from 1 to 5 based on your experience</p>
    <ul id=""confidence-levels"">
      <li id=""conf-1"">1: Not at all confident</li>
      <li id=""conf-2"">2: Slightly confident</li>
      <li id=""conf-3"">3: Somewhat confident</li>
      <li id=""conf-4"">4: Very confident</li>
      <li id=""conf-5"">5: Completely confident</li>
    </ul>","5","","","","","",""
"","","","","","psychophysics","76","270507","0.0-7.0-62.0","376785","","1326","","","","","","","","","","","0","key","0","16.665149999999993","768","250","0"
"","","","","","html-keyboard-response","77","270771","0.0-7.0-63.0","376785","","264","","","","","","","","","","
    <p>How confident are you in your response? Press the corresponding keys from 1 to 5 based on your experience</p>
    <ul id=""confidence-levels"">
      <li id=""conf-1"">1: Not at all confident</li>
      <li id=""conf-2"">2: Slightly confident</li>
      <li id=""conf-3"">3: Somewhat confident</li>
      <li id=""conf-4"">4: Very confident</li>
      <li id=""conf-5"">5: Completely confident</li>
    </ul>","5","","","","","",""
"","","","","","psychophysics","78","272008","0.0-7.0-64.0","376785","","1234","","","","","","","","","","","0","key","0","16.664702702703025","768","250","0"
"","","","","","html-keyboard-response","79","272338","0.0-7.0-65.0","376785","","329","","","","","","","","","","
    <p>How confident are you in your response? Press the corresponding keys from 1 to 5 based on your experience</p>
    <ul id=""confidence-levels"">
      <li id=""conf-1"">1: Not at all confident</li>
      <li id=""conf-2"">2: Slightly confident</li>
      <li id=""conf-3"">3: Somewhat confident</li>
      <li id=""conf-4"">4: Very confident</li>
      <li id=""conf-5"">5: Completely confident</li>
    </ul>","5","","","","","",""
"","","","","","psychophysics","80","273673","0.0-7.0-66.0","376785","","1333","","","","","","","","","","","2","key","2","16.664199999999983","768","250","1"
"","","","","","html-keyboard-response","81","273981","0.0-7.0-67.0","376785","","308","","","","","","","","","","
    <p>How confident are you in your response? Press the corresponding keys from 1 to 5 based on your experience</p>
    <ul id=""confidence-levels"">
      <li id=""conf-1"">1: Not at all confident</li>
      <li id=""conf-2"">2: Slightly confident</li>
      <li id=""conf-3"">3: Somewhat confident</li>
      <li id=""conf-4"">4: Very confident</li>
      <li id=""conf-5"">5: Completely confident</li>
    </ul>","5","","","","","",""
"","","","","","psychophysics","82","275218","0.0-7.0-68.0","376785","","1231","","","","","","","","","","","0","key","0","16.664493333333326","768","250","0"
"","","","","","html-keyboard-response","83","275508","0.0-7.0-69.0","376785","","290","","","","","","","","","","
    <p>How confident are you in your response? Press the corresponding keys from 1 to 5 based on your experience</p>
    <ul id=""confidence-levels"">
      <li id=""conf-1"">1: Not at all confident</li>
      <li id=""conf-2"">2: Slightly confident</li>
      <li id=""conf-3"">3: Somewhat confident</li>
      <li id=""conf-4"">4: Very confident</li>
      <li id=""conf-5"">5: Completely confident</li>
    </ul>","5","","","","","",""
"","","","","","psychophysics","84","276772","0.0-7.0-70.0","376785","","1261","","","","","","","","","","","1","key","1","16.665355263157643","768","250","1"
"","","","","","html-keyboard-response","85","277064","0.0-7.0-71.0","376785","","291","","","","","","","","","","
    <p>How confident are you in your response? Press the corresponding keys from 1 to 5 based on your experience</p>
    <ul id=""confidence-levels"">
      <li id=""conf-1"">1: Not at all confident</li>
      <li id=""conf-2"">2: Slightly confident</li>
      <li id=""conf-3"">3: Somewhat confident</li>
      <li id=""conf-4"">4: Very confident</li>
      <li id=""conf-5"">5: Completely confident</li>
    </ul>","5","","","","","",""
"","","","","","psychophysics","86","278195","0.0-7.0-72.0","376785","","1128","","","","","","","","","","","1","key","1","16.662397058823604","768","250","1"
"","","","","","html-keyboard-response","87","278565","0.0-7.0-73.0","376785","","370","","","","","","","","","","
    <p>How confident are you in your response? Press the corresponding keys from 1 to 5 based on your experience</p>
    <ul id=""confidence-levels"">
      <li id=""conf-1"">1: Not at all confident</li>
      <li id=""conf-2"">2: Slightly confident</li>
      <li id=""conf-3"">3: Somewhat confident</li>
      <li id=""conf-4"">4: Very confident</li>
      <li id=""conf-5"">5: Completely confident</li>
    </ul>","5","","","","","",""
"","","","","","psychophysics","88","280043","0.0-7.0-74.0","376785","","1475","","","","","","","","","","","1","key","1","16.667292134831737","768","250","1"
"","","","","","html-keyboard-response","89","280360","0.0-7.0-75.0","376785","","317","","","","","","","","","","
    <p>How confident are you in your response? Press the corresponding keys from 1 to 5 based on your experience</p>
    <ul id=""confidence-levels"">
      <li id=""conf-1"">1: Not at all confident</li>
      <li id=""conf-2"">2: Slightly confident</li>
      <li id=""conf-3"">3: Somewhat confident</li>
      <li id=""conf-4"">4: Very confident</li>
      <li id=""conf-5"">5: Completely confident</li>
    </ul>","5","","","","","",""
"","","","","","psychophysics","90","281545","0.0-7.0-76.0","376785","","1183","","","","","","","","","","","1","key","1","16.665338028169035","768","250","1"
"","","","","","html-keyboard-response","91","281907","0.0-7.0-77.0","376785","","361","","","","","","","","","","
    <p>How confident are you in your response? Press the corresponding keys from 1 to 5 based on your experience</p>
    <ul id=""confidence-levels"">
      <li id=""conf-1"">1: Not at all confident</li>
      <li id=""conf-2"">2: Slightly confident</li>
      <li id=""conf-3"">3: Somewhat confident</li>
      <li id=""conf-4"">4: Very confident</li>
      <li id=""conf-5"">5: Completely confident</li>
    </ul>","5","","","","","",""
"","","","","","psychophysics","92","283043","0.0-7.0-78.0","376785","","1134","","","","","","","","","","","1","key","1","16.6660147058822","768","250","1"
"","","","","","html-keyboard-response","93","283298","0.0-7.0-79.0","376785","","255","","","","","","","","","","
    <p>How confident are you in your response? Press the corresponding keys from 1 to 5 based on your experience</p>
    <ul id=""confidence-levels"">
      <li id=""conf-1"">1: Not at all confident</li>
      <li id=""conf-2"">2: Slightly confident</li>
      <li id=""conf-3"">3: Somewhat confident</li>
      <li id=""conf-4"">4: Very confident</li>
      <li id=""conf-5"">5: Completely confident</li>
    </ul>","5","","","","","",""
"","","","","","html-keyboard-response","94","286956","0.0-8.0","376785","","3658","","","","","","","","","","Your average response time is  1637.744 ms You are doing great"," ","","","","","",""
"","","","","","html-button-response","95","354845","0.0-9.0","376785","","67888","","","","","","","","","","<p>You have successfully completed one block of the experiment. The next part of the experiment can be started in <span id=""clock"">1:00</span> <br>You can take a break for a minute or more if you like and Press continue when you are ready","0","","","","","",""
"","","","","","psychophysics","96","358817","0.0-10.0-0.0","376785","","3966","","","","","","","","","","","2","key","2","16.66562761506285","768","250","2"
"","","","","","html-keyboard-response","97","360920","0.0-10.0-1.0","376785","","2102","","","","","","","","","","
    <p>How confident are you in your response? Press the corresponding keys from 1 to 5 based on your experience</p>
    <ul id=""confidence-levels"">
      <li id=""conf-1"">1: Not at all confident</li>
      <li id=""conf-2"">2: Slightly confident</li>
      <li id=""conf-3"">3: Somewhat confident</li>
      <li id=""conf-4"">4: Very confident</li>
      <li id=""conf-5"">5: Completely confident</li>
    </ul>","4","","","","","",""
"","","","","","psychophysics","98","362285","0.0-10.0-2.0","376785","","1359","","","","","","","","","","","2","key","2","16.66245121951215","768","250","2"
"","","","","","html-keyboard-response","99","362725","0.0-10.0-3.0","376785","","439","","","","","","","","","","
    <p>How confident are you in your response? Press the corresponding keys from 1 to 5 based on your experience</p>
    <ul id=""confidence-levels"">
      <li id=""conf-1"">1: Not at all confident</li>
      <li id=""conf-2"">2: Slightly confident</li>
      <li id=""conf-3"">3: Somewhat confident</li>
      <li id=""conf-4"">4: Very confident</li>
      <li id=""conf-5"">5: Completely confident</li>
    </ul>","4","","","","","",""
"","","","","","psychophysics","100","363941","0.0-10.0-4.0","376785","","1212","","","","","","","","","","","2","key","2","16.667506849315107","768","250","2"
"","","","","","html-keyboard-response","101","364270","0.0-10.0-5.0","376785","","328","","","","","","","","","","
    <p>How confident are you in your response? Press the corresponding keys from 1 to 5 based on your experience</p>
    <ul id=""confidence-levels"">
      <li id=""conf-1"">1: Not at all confident</li>
      <li id=""conf-2"">2: Slightly confident</li>
      <li id=""conf-3"">3: Somewhat confident</li>
      <li id=""conf-4"">4: Very confident</li>
      <li id=""conf-5"">5: Completely confident</li>
    </ul>","4","","","","","",""
"","","","","","psychophysics","102","365384","0.0-10.0-6.0","376785","","1110","","","","","","","","","","","2","key","2","16.665850746268998","768","250","2"
"","","","","","html-keyboard-response","103","365679","0.0-10.0-7.0","376785","","295","","","","","","","","","","
    <p>How confident are you in your response? Press the corresponding keys from 1 to 5 based on your experience</p>
    <ul id=""confidence-levels"">
      <li id=""conf-1"">1: Not at all confident</li>
      <li id=""conf-2"">2: Slightly confident</li>
      <li id=""conf-3"">3: Somewhat confident</li>
      <li id=""conf-4"">4: Very confident</li>
      <li id=""conf-5"">5: Completely confident</li>
    </ul>","4","","","","","",""
"","","","","","psychophysics","104","367285","0.0-10.0-8.0","376785","","1602","","","","","","","","","","","2","key","2","16.666199999999893","768","250","2"
"","","","","","html-keyboard-response","105","367901","0.0-10.0-9.0","376785","","616","","","","","","","","","","
    <p>How confident are you in your response? Press the corresponding keys from 1 to 5 based on your experience</p>
    <ul id=""confidence-levels"">
      <li id=""conf-1"">1: Not at all confident</li>
      <li id=""conf-2"">2: Slightly confident</li>
      <li id=""conf-3"">3: Somewhat confident</li>
      <li id=""conf-4"">4: Very confident</li>
      <li id=""conf-5"">5: Completely confident</li>
    </ul>","5","","","","","",""
"","","","","","psychophysics","106","369003","0.0-10.0-10.0","376785","","1099","","","","","","","","","","","2","key","2","16.66612121212088","768","250","2"
"","","","","","html-keyboard-response","107","369262","0.0-10.0-11.0","376785","","259","","","","","","","","","","
    <p>How confident are you in your response? Press the corresponding keys from 1 to 5 based on your experience</p>
    <ul id=""confidence-levels"">
      <li id=""conf-1"">1: Not at all confident</li>
      <li id=""conf-2"">2: Slightly confident</li>
      <li id=""conf-3"">3: Somewhat confident</li>
      <li id=""conf-4"">4: Very confident</li>
      <li id=""conf-5"">5: Completely confident</li>
    </ul>","5","","","","","",""
"","","","","","psychophysics","108","370565","0.0-10.0-12.0","376785","","1300","","","","","","","","","","","1","key","1","16.878192307692444","768","250","1"
"","","","","","html-keyboard-response","109","370796","0.0-10.0-13.0","376785","","230","","","","","","","","","","
    <p>How confident are you in your response? Press the corresponding keys from 1 to 5 based on your experience</p>
    <ul id=""confidence-levels"">
      <li id=""conf-1"">1: Not at all confident</li>
      <li id=""conf-2"">2: Slightly confident</li>
      <li id=""conf-3"">3: Somewhat confident</li>
      <li id=""conf-4"">4: Very confident</li>
      <li id=""conf-5"">5: Completely confident</li>
    </ul>","5","","","","","",""
"","","","","","psychophysics","110","371911","0.0-10.0-14.0","376785","","1109","","","","","","","","","","","2","key","2","16.666227272726687","768","250","2"
"","","","","","html-keyboard-response","111","372163","0.0-10.0-15.0","376785","","251","","","","","","","","","","
    <p>How confident are you in your response? Press the corresponding keys from 1 to 5 based on your experience</p>
    <ul id=""confidence-levels"">
      <li id=""conf-1"">1: Not at all confident</li>
      <li id=""conf-2"">2: Slightly confident</li>
      <li id=""conf-3"">3: Somewhat confident</li>
      <li id=""conf-4"">4: Very confident</li>
      <li id=""conf-5"">5: Completely confident</li>
    </ul>","5","","","","","",""
"","","","","","psychophysics","112","373334","0.0-10.0-16.0","376785","","1169","","","","","","","","","","","2","key","2","16.666142857142923","768","250","2"
"","","","","","html-keyboard-response","113","373561","0.0-10.0-17.0","376785","","226","","","","","","","","","","
    <p>How confident are you in your response? Press the corresponding keys from 1 to 5 based on your experience</p>
    <ul id=""confidence-levels"">
      <li id=""conf-1"">1: Not at all confident</li>
      <li id=""conf-2"">2: Slightly confident</li>
      <li id=""conf-3"">3: Somewhat confident</li>
      <li id=""conf-4"">4: Very confident</li>
      <li id=""conf-5"">5: Completely confident</li>
    </ul>","5","","","","","",""
"","","","","","psychophysics","114","374620","0.0-10.0-18.0","376785","","1055","","","","","","","","","","","2","key","2","16.66375000000062","768","250","2"
"","","","","","html-keyboard-response","115","374849","0.0-10.0-19.0","376785","","227","","","","","","","","","","
    <p>How confident are you in your response? Press the corresponding keys from 1 to 5 based on your experience</p>
    <ul id=""confidence-levels"">
      <li id=""conf-1"">1: Not at all confident</li>
      <li id=""conf-2"">2: Slightly confident</li>
      <li id=""conf-3"">3: Somewhat confident</li>
      <li id=""conf-4"">4: Very confident</li>
      <li id=""conf-5"">5: Completely confident</li>
    </ul>","5","","","","","",""
"","","","","","psychophysics","116","376975","0.0-10.0-20.0","376785","","2120","","","","","","","","","","","2","key","2","16.665968503936845","768","250","2"
"","","","","","html-keyboard-response","117","377277","0.0-10.0-21.0","376785","","301","","","","","","","","","","
    <p>How confident are you in your response? Press the corresponding keys from 1 to 5 based on your experience</p>
    <ul id=""confidence-levels"">
      <li id=""conf-1"">1: Not at all confident</li>
      <li id=""conf-2"">2: Slightly confident</li>
      <li id=""conf-3"">3: Somewhat confident</li>
      <li id=""conf-4"">4: Very confident</li>
      <li id=""conf-5"">5: Completely confident</li>
    </ul>","5","","","","","",""
"","","","","","psychophysics","118","378416","0.0-10.0-22.0","376785","","1132","","","","","","","","","","","2","key","2","16.663985507246412","768","250","2"
"","","","","","html-keyboard-response","119","378767","0.0-10.0-23.0","376785","","350","","","","","","","","","","
    <p>How confident are you in your response? Press the corresponding keys from 1 to 5 based on your experience</p>
    <ul id=""confidence-levels"">
      <li id=""conf-1"">1: Not at all confident</li>
      <li id=""conf-2"">2: Slightly confident</li>
      <li id=""conf-3"">3: Somewhat confident</li>
      <li id=""conf-4"">4: Very confident</li>
      <li id=""conf-5"">5: Completely confident</li>
    </ul>","5","","","","","",""
"","","","","","psychophysics","120","380204","0.0-10.0-24.0","376785","","1434","","","","","","","","","","","1","key","1","16.664720930232868","768","250","1"
"","","","","","html-keyboard-response","121","380430","0.0-10.0-25.0","376785","","225","","","","","","","","","","
    <p>How confident are you in your response? Press the corresponding keys from 1 to 5 based on your experience</p>
    <ul id=""confidence-levels"">
      <li id=""conf-1"">1: Not at all confident</li>
      <li id=""conf-2"">2: Slightly confident</li>
      <li id=""conf-3"">3: Somewhat confident</li>
      <li id=""conf-4"">4: Very confident</li>
      <li id=""conf-5"">5: Completely confident</li>
    </ul>","5","","","","","",""
"","","","","","psychophysics","122","381562","0.0-10.0-26.0","376785","","1127","","","","","","","","","","","2","key","2","16.666179104477912","768","250","2"
"","","","","","html-keyboard-response","123","381859","0.0-10.0-27.0","376785","","296","","","","","","","","","","
    <p>How confident are you in your response? Press the corresponding keys from 1 to 5 based on your experience</p>
    <ul id=""confidence-levels"">
      <li id=""conf-1"">1: Not at all confident</li>
      <li id=""conf-2"">2: Slightly confident</li>
      <li id=""conf-3"">3: Somewhat confident</li>
      <li id=""conf-4"">4: Very confident</li>
      <li id=""conf-5"">5: Completely confident</li>
    </ul>","5","","","","","",""
"","","","","","psychophysics","124","383137","0.0-10.0-28.0","376785","","1274","","","","","","","","","","","1","key","1","16.665428571427974","768","250","1"
"","","","","","html-keyboard-response","125","383328","0.0-10.0-29.0","376785","","190","","","","","","","","","","
    <p>How confident are you in your response? Press the corresponding keys from 1 to 5 based on your experience</p>
    <ul id=""confidence-levels"">
      <li id=""conf-1"">1: Not at all confident</li>
      <li id=""conf-2"">2: Slightly confident</li>
      <li id=""conf-3"">3: Somewhat confident</li>
      <li id=""conf-4"">4: Very confident</li>
      <li id=""conf-5"">5: Completely confident</li>
    </ul>","5","","","","","",""
"","","","","","psychophysics","126","384356","0.0-10.0-30.0","376785","","1020","","","","","","","","","","","2","key","2","16.938262295081913","768","250","2"
"","","","","","html-keyboard-response","127","384548","0.0-10.0-31.0","376785","","191","","","","","","","","","","
    <p>How confident are you in your response? Press the corresponding keys from 1 to 5 based on your experience</p>
    <ul id=""confidence-levels"">
      <li id=""conf-1"">1: Not at all confident</li>
      <li id=""conf-2"">2: Slightly confident</li>
      <li id=""conf-3"">3: Somewhat confident</li>
      <li id=""conf-4"">4: Very confident</li>
      <li id=""conf-5"">5: Completely confident</li>
    </ul>","5","","","","","",""
"","","","","","psychophysics","128","385742","0.0-10.0-32.0","376785","","1190","","","","","","","","","","","2","key","2","16.664676056337758","768","250","2"
"","","","","","html-keyboard-response","129","385937","0.0-10.0-33.0","376785","","194","","","","","","","","","","
    <p>How confident are you in your response? Press the corresponding keys from 1 to 5 based on your experience</p>
    <ul id=""confidence-levels"">
      <li id=""conf-1"">1: Not at all confident</li>
      <li id=""conf-2"">2: Slightly confident</li>
      <li id=""conf-3"">3: Somewhat confident</li>
      <li id=""conf-4"">4: Very confident</li>
      <li id=""conf-5"">5: Completely confident</li>
    </ul>","5","","","","","",""
"","","","","","psychophysics","130","386859","0.0-10.0-34.0","376785","","917","","","","","","","","","","","2","key","2","16.665927272727078","768","250","2"
"","","","","","html-keyboard-response","131","387079","0.0-10.0-35.0","376785","","219","","","","","","","","","","
    <p>How confident are you in your response? Press the corresponding keys from 1 to 5 based on your experience</p>
    <ul id=""confidence-levels"">
      <li id=""conf-1"">1: Not at all confident</li>
      <li id=""conf-2"">2: Slightly confident</li>
      <li id=""conf-3"">3: Somewhat confident</li>
      <li id=""conf-4"">4: Very confident</li>
      <li id=""conf-5"">5: Completely confident</li>
    </ul>","5","","","","","",""
"","","","","","psychophysics","132","387998","0.0-10.0-36.0","376785","","915","","","","","","","","","","","2","key","2","16.666527272727002","768","250","2"
"","","","","","html-keyboard-response","133","388144","0.0-10.0-37.0","376785","","145","","","","","","","","","","
    <p>How confident are you in your response? Press the corresponding keys from 1 to 5 based on your experience</p>
    <ul id=""confidence-levels"">
      <li id=""conf-1"">1: Not at all confident</li>
      <li id=""conf-2"">2: Slightly confident</li>
      <li id=""conf-3"">3: Somewhat confident</li>
      <li id=""conf-4"">4: Very confident</li>
      <li id=""conf-5"">5: Completely confident</li>
    </ul>","5","","","","","",""
"","","","","","psychophysics","134","388970","0.0-10.0-38.0","376785","","821","","","","","","","","","","","2","key","2","16.66863999999943","768","250","1"
"","","","","","html-keyboard-response","135","389149","0.0-10.0-39.0","376785","","178","","","","","","","","","","
    <p>How confident are you in your response? Press the corresponding keys from 1 to 5 based on your experience</p>
    <ul id=""confidence-levels"">
      <li id=""conf-1"">1: Not at all confident</li>
      <li id=""conf-2"">2: Slightly confident</li>
      <li id=""conf-3"">3: Somewhat confident</li>
      <li id=""conf-4"">4: Very confident</li>
      <li id=""conf-5"">5: Completely confident</li>
    </ul>","5","","","","","",""
"","","","","","psychophysics","136","390463","0.0-10.0-40.0","376785","","1304","","","","","","","","","","","2","key","2","16.666102564102637","768","250","1"
"","","","","","html-keyboard-response","137","390614","0.0-10.0-41.0","376785","","151","","","","","","","","","","
    <p>How confident are you in your response? Press the corresponding keys from 1 to 5 based on your experience</p>
    <ul id=""confidence-levels"">
      <li id=""conf-1"">1: Not at all confident</li>
      <li id=""conf-2"">2: Slightly confident</li>
      <li id=""conf-3"">3: Somewhat confident</li>
      <li id=""conf-4"">4: Very confident</li>
      <li id=""conf-5"">5: Completely confident</li>
    </ul>","5","","","","","",""
"","","","","","psychophysics","138","391773","0.0-10.0-42.0","376785","","1155","","","","","","","","","","","2","key","2","16.669217391304024","768","250","2"
"","","","","","html-keyboard-response","139","391964","0.0-10.0-43.0","376785","","190","","","","","","","","","","
    <p>How confident are you in your response? Press the corresponding keys from 1 to 5 based on your experience</p>
    <ul id=""confidence-levels"">
      <li id=""conf-1"">1: Not at all confident</li>
      <li id=""conf-2"">2: Slightly confident</li>
      <li id=""conf-3"">3: Somewhat confident</li>
      <li id=""conf-4"">4: Very confident</li>
      <li id=""conf-5"">5: Completely confident</li>
    </ul>","5","","","","","",""
"","","","","","psychophysics","140","392903","0.0-10.0-44.0","376785","","934","","","","","","","","","","","2","key","2","16.664696428571396","768","250","2"
"","","","","","html-keyboard-response","141","393063","0.0-10.0-45.0","376785","","159","","","","","","","","","","
    <p>How confident are you in your response? Press the corresponding keys from 1 to 5 based on your experience</p>
    <ul id=""confidence-levels"">
      <li id=""conf-1"">1: Not at all confident</li>
      <li id=""conf-2"">2: Slightly confident</li>
      <li id=""conf-3"">3: Somewhat confident</li>
      <li id=""conf-4"">4: Very confident</li>
      <li id=""conf-5"">5: Completely confident</li>
    </ul>","5","","","","","",""
"","","","","","psychophysics","142","393979","0.0-10.0-46.0","376785","","911","","","","","","","","","","","2","key","2","16.666037037037313","768","250","2"
"","","","","","html-keyboard-response","143","394115","0.0-10.0-47.0","376785","","135","","","","","","","","","","
    <p>How confident are you in your response? Press the corresponding keys from 1 to 5 based on your experience</p>
    <ul id=""confidence-levels"">
      <li id=""conf-1"">1: Not at all confident</li>
      <li id=""conf-2"">2: Slightly confident</li>
      <li id=""conf-3"">3: Somewhat confident</li>
      <li id=""conf-4"">4: Very confident</li>
      <li id=""conf-5"">5: Completely confident</li>
    </ul>","5","","","","","",""
"","","","","","psychophysics","144","394947","0.0-10.0-48.0","376785","","823","","","","","","","","","","","2","key","2","16.665179999999236","768","250","1"
"","","","","","html-keyboard-response","145","395100","0.0-10.0-49.0","376785","","152","","","","","","","","","","
    <p>How confident are you in your response? Press the corresponding keys from 1 to 5 based on your experience</p>
    <ul id=""confidence-levels"">
      <li id=""conf-1"">1: Not at all confident</li>
      <li id=""conf-2"">2: Slightly confident</li>
      <li id=""conf-3"">3: Somewhat confident</li>
      <li id=""conf-4"">4: Very confident</li>
      <li id=""conf-5"">5: Completely confident</li>
    </ul>","5","","","","","",""
"","","","","","psychophysics","146","395923","0.0-10.0-50.0","376785","","818","","","","","","","","","","","2","key","2","16.666469387755235","768","250","1"
"","","","","","html-keyboard-response","147","396252","0.0-10.0-51.0","376785","","328","","","","","","","","","","
    <p>How confident are you in your response? Press the corresponding keys from 1 to 5 based on your experience</p>
    <ul id=""confidence-levels"">
      <li id=""conf-1"">1: Not at all confident</li>
      <li id=""conf-2"">2: Slightly confident</li>
      <li id=""conf-3"">3: Somewhat confident</li>
      <li id=""conf-4"">4: Very confident</li>
      <li id=""conf-5"">5: Completely confident</li>
    </ul>","5","","","","","",""
"","","","","","psychophysics","148","397023","0.0-10.0-52.0","376785","","767","","","","","","","","","","","2","key","2","16.665869565216227","768","250","2"
"","","","","","html-keyboard-response","149","397116","0.0-10.0-53.0","376785","","92","","","","","","","","","","
    <p>How confident are you in your response? Press the corresponding keys from 1 to 5 based on your experience</p>
    <ul id=""confidence-levels"">
      <li id=""conf-1"">1: Not at all confident</li>
      <li id=""conf-2"">2: Slightly confident</li>
      <li id=""conf-3"">3: Somewhat confident</li>
      <li id=""conf-4"">4: Very confident</li>
      <li id=""conf-5"">5: Completely confident</li>
    </ul>","5","","","","","",""
"","","","","","psychophysics","150","397845","0.0-10.0-54.0","376785","","725","","","","","","","","","","","2","key","2","16.668186046510698","768","250","2"
"","","","","","html-keyboard-response","151","397921","0.0-10.0-55.0","376785","","76","","","","","","","","","","
    <p>How confident are you in your response? Press the corresponding keys from 1 to 5 based on your experience</p>
    <ul id=""confidence-levels"">
      <li id=""conf-1"">1: Not at all confident</li>
      <li id=""conf-2"">2: Slightly confident</li>
      <li id=""conf-3"">3: Somewhat confident</li>
      <li id=""conf-4"">4: Very confident</li>
      <li id=""conf-5"">5: Completely confident</li>
    </ul>","5","","","","","",""
"","","","","","psychophysics","152","399214","0.0-10.0-56.0","376785","","1288","","","","","","","","","","","2","key","2","16.66633333333317","768","250","1"
"","","","","","html-keyboard-response","153","399296","0.0-10.0-57.0","376785","","81","","","","","","","","","","
    <p>How confident are you in your response? Press the corresponding keys from 1 to 5 based on your experience</p>
    <ul id=""confidence-levels"">
      <li id=""conf-1"">1: Not at all confident</li>
      <li id=""conf-2"">2: Slightly confident</li>
      <li id=""conf-3"">3: Somewhat confident</li>
      <li id=""conf-4"">4: Very confident</li>
      <li id=""conf-5"">5: Completely confident</li>
    </ul>","5","","","","","",""
"","","","","","psychophysics","154","400103","0.0-10.0-58.0","376785","","803","","","","","","","","","","","2","key","2","16.66654166666679","768","250","2"
"","","","","","html-keyboard-response","155","400191","0.0-10.0-59.0","376785","","86","","","","","","","","","","
    <p>How confident are you in your response? Press the corresponding keys from 1 to 5 based on your experience</p>
    <ul id=""confidence-levels"">
      <li id=""conf-1"">1: Not at all confident</li>
      <li id=""conf-2"">2: Slightly confident</li>
      <li id=""conf-3"">3: Somewhat confident</li>
      <li id=""conf-4"">4: Very confident</li>
      <li id=""conf-5"">5: Completely confident</li>
    </ul>","5","","","","","",""
"","","","","","psychophysics","156","400949","0.0-10.0-60.0","376785","","749","","","","","","","","","","","2","key","2","16.668478260869566","768","250","2"
"","","","","","html-keyboard-response","157","401012","0.0-10.0-61.0","376785","","62","","","","","","","","","","
    <p>How confident are you in your response? Press the corresponding keys from 1 to 5 based on your experience</p>
    <ul id=""confidence-levels"">
      <li id=""conf-1"">1: Not at all confident</li>
      <li id=""conf-2"">2: Slightly confident</li>
      <li id=""conf-3"">3: Somewhat confident</li>
      <li id=""conf-4"">4: Very confident</li>
      <li id=""conf-5"">5: Completely confident</li>
    </ul>","5","","","","","",""
"","","","","","psychophysics","158","401820","0.0-10.0-62.0","376785","","803","","","","","","","","","","","2","key","2","16.665183673469038","768","250","1"
"","","","","","html-keyboard-response","159","401912","0.0-10.0-63.0","376785","","92","","","","","","","","","","
    <p>How confident are you in your response? Press the corresponding keys from 1 to 5 based on your experience</p>
    <ul id=""confidence-levels"">
      <li id=""conf-1"">1: Not at all confident</li>
      <li id=""conf-2"">2: Slightly confident</li>
      <li id=""conf-3"">3: Somewhat confident</li>
      <li id=""conf-4"">4: Very confident</li>
      <li id=""conf-5"">5: Completely confident</li>
    </ul>","5","","","","","",""
"","","","","","psychophysics","160","402714","0.0-10.0-64.0","376785","","798","","","","","","","","","","","2","key","2","16.666333333333267","768","250","1"
"","","","","","html-keyboard-response","161","402765","0.0-10.0-65.0","376785","","49","","","","","","","","","","
    <p>How confident are you in your response? Press the corresponding keys from 1 to 5 based on your experience</p>
    <ul id=""confidence-levels"">
      <li id=""conf-1"">1: Not at all confident</li>
      <li id=""conf-2"">2: Slightly confident</li>
      <li id=""conf-3"">3: Somewhat confident</li>
      <li id=""conf-4"">4: Very confident</li>
      <li id=""conf-5"">5: Completely confident</li>
    </ul>","5","","","","","",""
"","","","","","psychophysics","162","403795","0.0-10.0-66.0","376785","","1027","","","","","","","","","","","2","key","2","16.666966666666365","768","250","2"
"","","","","","html-keyboard-response","163","403935","0.0-10.0-67.0","376785","","140","","","","","","","","","","
    <p>How confident are you in your response? Press the corresponding keys from 1 to 5 based on your experience</p>
    <ul id=""confidence-levels"">
      <li id=""conf-1"">1: Not at all confident</li>
      <li id=""conf-2"">2: Slightly confident</li>
      <li id=""conf-3"">3: Somewhat confident</li>
      <li id=""conf-4"">4: Very confident</li>
      <li id=""conf-5"">5: Completely confident</li>
    </ul>","5","","","","","",""
"","","","","","psychophysics","164","404798","0.0-10.0-68.0","376785","","858","","","","","","","","","","","2","key","2","16.667307692307915","768","250","2"
"","","","","","html-keyboard-response","165","404917","0.0-10.0-69.0","376785","","118","","","","","","","","","","
    <p>How confident are you in your response? Press the corresponding keys from 1 to 5 based on your experience</p>
    <ul id=""confidence-levels"">
      <li id=""conf-1"">1: Not at all confident</li>
      <li id=""conf-2"">2: Slightly confident</li>
      <li id=""conf-3"">3: Somewhat confident</li>
      <li id=""conf-4"">4: Very confident</li>
      <li id=""conf-5"">5: Completely confident</li>
    </ul>","5","","","","","",""
"","","","","","psychophysics","166","405602","0.0-10.0-70.0","376785","","683","","","","","","","","","","","2","key","2","16.666975609756573","768","250","1"
"","","","","","html-keyboard-response","167","405662","0.0-10.0-71.0","376785","","59","","","","","","","","","","
    <p>How confident are you in your response? Press the corresponding keys from 1 to 5 based on your experience</p>
    <ul id=""confidence-levels"">
      <li id=""conf-1"">1: Not at all confident</li>
      <li id=""conf-2"">2: Slightly confident</li>
      <li id=""conf-3"">3: Somewhat confident</li>
      <li id=""conf-4"">4: Very confident</li>
      <li id=""conf-5"">5: Completely confident</li>
    </ul>","5","","","","","",""
"","","","","","psychophysics","168","406463","0.0-10.0-72.0","376785","","797","","","","","","","","","","","2","key","2","16.662604166666522","768","250","1"
"","","","","","html-keyboard-response","169","406525","0.0-10.0-73.0","376785","","62","","","","","","","","","","
    <p>How confident are you in your response? Press the corresponding keys from 1 to 5 based on your experience</p>
    <ul id=""confidence-levels"">
      <li id=""conf-1"">1: Not at all confident</li>
      <li id=""conf-2"">2: Slightly confident</li>
      <li id=""conf-3"">3: Somewhat confident</li>
      <li id=""conf-4"">4: Very confident</li>
      <li id=""conf-5"">5: Completely confident</li>
    </ul>","5","","","","","",""
"","","","","","psychophysics","170","407302","0.0-10.0-74.0","376785","","772","","","","","","","","","","","2","key","2","16.669695652173527","768","250","2"
"","","","","","html-keyboard-response","171","407391","0.0-10.0-75.0","376785","","88","","","","","","","","","","
    <p>How confident are you in your response? Press the corresponding keys from 1 to 5 based on your experience</p>
    <ul id=""confidence-levels"">
      <li id=""conf-1"">1: Not at all confident</li>
      <li id=""conf-2"">2: Slightly confident</li>
      <li id=""conf-3"">3: Somewhat confident</li>
      <li id=""conf-4"">4: Very confident</li>
      <li id=""conf-5"">5: Completely confident</li>
    </ul>","5","","","","","",""
"","","","","","psychophysics","172","408204","0.0-10.0-76.0","376785","","808","","","","","","","","","","","2","key","2","16.667163265305952","768","250","1"
"","","","","","html-keyboard-response","173","408264","0.0-10.0-77.0","376785","","58","","","","","","","","","","
    <p>How confident are you in your response? Press the corresponding keys from 1 to 5 based on your experience</p>
    <ul id=""confidence-levels"">
      <li id=""conf-1"">1: Not at all confident</li>
      <li id=""conf-2"">2: Slightly confident</li>
      <li id=""conf-3"">3: Somewhat confident</li>
      <li id=""conf-4"">4: Very confident</li>
      <li id=""conf-5"">5: Completely confident</li>
    </ul>","5","","","","","",""
"","","","","","html-keyboard-response","174","412084","0.0-11.0","376785","","3819","","","","","","","","","","Your average response time is null ms You are doing great"," ","","","","","",""
"","","","","","html-button-response","175","475630","0.0-12.0","376785","","63544","","","","","","","","","","<p>You have successfully completed one block of the experiment. The next part of the experiment can be started in <span id=""clock"">1:00</span> <br>You can take a break for a minute or more if you like and Press continue when you are ready","0","","","","","",""
"","","","","","psychophysics","176","477763","0.0-13.0-0.0","376785","","2127","","","","","","","","","","","1","key","1","16.666093750000073","768","250","1"
"","","","","","html-keyboard-response","177","478532","0.0-13.0-1.0","376785","","767","","","","","","","","","","
    <p>How confident are you in your response? Press the corresponding keys from 1 to 5 based on your experience</p>
    <ul id=""confidence-levels"">
      <li id=""conf-1"">1: Not at all confident</li>
      <li id=""conf-2"">2: Slightly confident</li>
      <li id=""conf-3"">3: Somewhat confident</li>
      <li id=""conf-4"">4: Very confident</li>
      <li id=""conf-5"">5: Completely confident</li>
    </ul>","4","","","","","",""
"","","","","","psychophysics","178","479802","0.0-13.0-2.0","376785","","1266","","","","","","","","","","","1","key","1","16.66522368421015","768","250","1"
"","","","","","html-keyboard-response","179","480139","0.0-13.0-3.0","376785","","336","","","","","","","","","","
    <p>How confident are you in your response? Press the corresponding keys from 1 to 5 based on your experience</p>
    <ul id=""confidence-levels"">
      <li id=""conf-1"">1: Not at all confident</li>
      <li id=""conf-2"">2: Slightly confident</li>
      <li id=""conf-3"">3: Somewhat confident</li>
      <li id=""conf-4"">4: Very confident</li>
      <li id=""conf-5"">5: Completely confident</li>
    </ul>","4","","","","","",""
"","","","","","psychophysics","180","481260","0.0-13.0-4.0","376785","","1116","","","","","","","","","","","2","key","2","16.667134328358703","768","250","1"
"","","","","","html-keyboard-response","181","481483","0.0-13.0-5.0","376785","","223","","","","","","","","","","
    <p>How confident are you in your response? Press the corresponding keys from 1 to 5 based on your experience</p>
    <ul id=""confidence-levels"">
      <li id=""conf-1"">1: Not at all confident</li>
      <li id=""conf-2"">2: Slightly confident</li>
      <li id=""conf-3"">3: Somewhat confident</li>
      <li id=""conf-4"">4: Very confident</li>
      <li id=""conf-5"">5: Completely confident</li>
    </ul>","5","","","","","",""
"","","","","","psychophysics","182","482941","0.0-13.0-6.0","376785","","1454","","","","","","","","","","","1","key","1","16.66480459770102","768","250","1"
"","","","","","html-keyboard-response","183","483164","0.0-13.0-7.0","376785","","222","","","","","","","","","","
    <p>How confident are you in your response? Press the corresponding keys from 1 to 5 based on your experience</p>
    <ul id=""confidence-levels"">
      <li id=""conf-1"">1: Not at all confident</li>
      <li id=""conf-2"">2: Slightly confident</li>
      <li id=""conf-3"">3: Somewhat confident</li>
      <li id=""conf-4"">4: Very confident</li>
      <li id=""conf-5"">5: Completely confident</li>
    </ul>","4","","","","","",""
"","","","","","psychophysics","184","484837","0.0-13.0-8.0","376785","","1669","","","","","","","","","","","1","key","1","16.6663400000002","768","250","1"
"","","","","","html-keyboard-response","185","485168","0.0-13.0-9.0","376785","","330","","","","","","","","","","
    <p>How confident are you in your response? Press the corresponding keys from 1 to 5 based on your experience</p>
    <ul id=""confidence-levels"">
      <li id=""conf-1"">1: Not at all confident</li>
      <li id=""conf-2"">2: Slightly confident</li>
      <li id=""conf-3"">3: Somewhat confident</li>
      <li id=""conf-4"">4: Very confident</li>
      <li id=""conf-5"">5: Completely confident</li>
    </ul>","4","","","","","",""
"","","","","","psychophysics","186","486433","0.0-13.0-10.0","376785","","1260","","","","","","","","","","","1","key","1","16.665723684210924","768","250","1"
"","","","","","html-keyboard-response","187","486637","0.0-13.0-11.0","376785","","203","","","","","","","","","","
    <p>How confident are you in your response? Press the corresponding keys from 1 to 5 based on your experience</p>
    <ul id=""confidence-levels"">
      <li id=""conf-1"">1: Not at all confident</li>
      <li id=""conf-2"">2: Slightly confident</li>
      <li id=""conf-3"">3: Somewhat confident</li>
      <li id=""conf-4"">4: Very confident</li>
      <li id=""conf-5"">5: Completely confident</li>
    </ul>","4","","","","","",""
"","","","","","psychophysics","188","487811","0.0-13.0-12.0","376785","","1170","","","","","","","","","","","2","key","2","16.665785714285448","768","250","1"
"","","","","","html-keyboard-response","189","488017","0.0-13.0-13.0","376785","","205","","","","","","","","","","
    <p>How confident are you in your response? Press the corresponding keys from 1 to 5 based on your experience</p>
    <ul id=""confidence-levels"">
      <li id=""conf-1"">1: Not at all confident</li>
      <li id=""conf-2"">2: Slightly confident</li>
      <li id=""conf-3"">3: Somewhat confident</li>
      <li id=""conf-4"">4: Very confident</li>
      <li id=""conf-5"">5: Completely confident</li>
    </ul>","5","","","","","",""
"","","","","","psychophysics","190","489222","0.0-13.0-14.0","376785","","1202","","","","","","","","","","","1","key","1","16.666305555555383","768","250","1"
"","","","","","html-keyboard-response","191","489415","0.0-13.0-15.0","376785","","191","","","","","","","","","","
    <p>How confident are you in your response? Press the corresponding keys from 1 to 5 based on your experience</p>
    <ul id=""confidence-levels"">
      <li id=""conf-1"">1: Not at all confident</li>
      <li id=""conf-2"">2: Slightly confident</li>
      <li id=""conf-3"">3: Somewhat confident</li>
      <li id=""conf-4"">4: Very confident</li>
      <li id=""conf-5"">5: Completely confident</li>
    </ul>","4","","","","","",""
"","","","","","psychophysics","192","490462","0.0-13.0-16.0","376785","","1043","","","","","","","","","","","2","key","2","16.66650793650871","768","250","1"
"","","","","","html-keyboard-response","193","490755","0.0-13.0-17.0","376785","","291","","","","","","","","","","
    <p>How confident are you in your response? Press the corresponding keys from 1 to 5 based on your experience</p>
    <ul id=""confidence-levels"">
      <li id=""conf-1"">1: Not at all confident</li>
      <li id=""conf-2"">2: Slightly confident</li>
      <li id=""conf-3"">3: Somewhat confident</li>
      <li id=""conf-4"">4: Very confident</li>
      <li id=""conf-5"">5: Completely confident</li>
    </ul>","5","","","","","",""
"","","","","","psychophysics","194","491895","0.0-13.0-18.0","376785","","1136","","","","","","","","","","","2","key","2","16.66397058823478","768","250","1"
"","","","","","html-keyboard-response","195","492318","0.0-13.0-19.0","376785","","423","","","","","","","","","","
    <p>How confident are you in your response? Press the corresponding keys from 1 to 5 based on your experience</p>
    <ul id=""confidence-levels"">
      <li id=""conf-1"">1: Not at all confident</li>
      <li id=""conf-2"">2: Slightly confident</li>
      <li id=""conf-3"">3: Somewhat confident</li>
      <li id=""conf-4"">4: Very confident</li>
      <li id=""conf-5"">5: Completely confident</li>
    </ul>","5","","","","","",""
"","","","","","psychophysics","196","493221","0.0-13.0-20.0","376785","","899","","","","","","","","","","","2","key","2","16.66644444444359","768","250","1"
"","","","","","html-keyboard-response","197","493493","0.0-13.0-21.0","376785","","271","","","","","","","","","","
    <p>How confident are you in your response? Press the corresponding keys from 1 to 5 based on your experience</p>
    <ul id=""confidence-levels"">
      <li id=""conf-1"">1: Not at all confident</li>
      <li id=""conf-2"">2: Slightly confident</li>
      <li id=""conf-3"">3: Somewhat confident</li>
      <li id=""conf-4"">4: Very confident</li>
      <li id=""conf-5"">5: Completely confident</li>
    </ul>","5","","","","","",""
"","","","","","psychophysics","198","494364","0.0-13.0-22.0","376785","","862","","","","","","","","","","","2","key","2","16.987826923076334","768","250","1"
"","","","","","html-keyboard-response","199","494617","0.0-13.0-23.0","376785","","253","","","","","","","","","","
    <p>How confident are you in your response? Press the corresponding keys from 1 to 5 based on your experience</p>
    <ul id=""confidence-levels"">
      <li id=""conf-1"">1: Not at all confident</li>
      <li id=""conf-2"">2: Slightly confident</li>
      <li id=""conf-3"">3: Somewhat confident</li>
      <li id=""conf-4"">4: Very confident</li>
      <li id=""conf-5"">5: Completely confident</li>
    </ul>","5","","","","","",""
"","","","","","psychophysics","200","495438","0.0-13.0-24.0","376785","","817","","","","","","","","","","","1","key","1","16.666183673470204","768","250","1"
"","","","","","html-keyboard-response","201","495583","0.0-13.0-25.0","376785","","144","","","","","","","","","","
    <p>How confident are you in your response? Press the corresponding keys from 1 to 5 based on your experience</p>
    <ul id=""confidence-levels"">
      <li id=""conf-1"">1: Not at all confident</li>
      <li id=""conf-2"">2: Slightly confident</li>
      <li id=""conf-3"">3: Somewhat confident</li>
      <li id=""conf-4"">4: Very confident</li>
      <li id=""conf-5"">5: Completely confident</li>
    </ul>","5","","","","","",""
"","","","","","psychophysics","202","496668","0.0-13.0-26.0","376785","","1081","","","","","","","","","","","2","key","2","16.667276923077253","768","250","1"
"","","","","","html-keyboard-response","203","496823","0.0-13.0-27.0","376785","","154","","","","","","","","","","
    <p>How confident are you in your response? Press the corresponding keys from 1 to 5 based on your experience</p>
    <ul id=""confidence-levels"">
      <li id=""conf-1"">1: Not at all confident</li>
      <li id=""conf-2"">2: Slightly confident</li>
      <li id=""conf-3"">3: Somewhat confident</li>
      <li id=""conf-4"">4: Very confident</li>
      <li id=""conf-5"">5: Completely confident</li>
    </ul>","5","","","","","",""
"","","","","","psychophysics","204","498116","0.0-13.0-28.0","376785","","1289","","","","","","","","","","","1","key","1","16.664897435896982","768","250","1"
"","","","","","html-keyboard-response","205","498295","0.0-13.0-29.0","376785","","179","","","","","","","","","","
    <p>How confident are you in your response? Press the corresponding keys from 1 to 5 based on your experience</p>
    <ul id=""confidence-levels"">
      <li id=""conf-1"">1: Not at all confident</li>
      <li id=""conf-2"">2: Slightly confident</li>
      <li id=""conf-3"">3: Somewhat confident</li>
      <li id=""conf-4"">4: Very confident</li>
      <li id=""conf-5"">5: Completely confident</li>
    </ul>","5","","","","","",""
"","","","","","psychophysics","206","499340","0.0-13.0-30.0","376785","","1042","","","","","","","","","","","2","key","2","16.66535483871027","768","250","1"
"","","","","","html-keyboard-response","207","499837","0.0-13.0-31.0","376785","","497","","","","","","","","","","
    <p>How confident are you in your response? Press the corresponding keys from 1 to 5 based on your experience</p>
    <ul id=""confidence-levels"">
      <li id=""conf-1"">1: Not at all confident</li>
      <li id=""conf-2"">2: Slightly confident</li>
      <li id=""conf-3"">3: Somewhat confident</li>
      <li id=""conf-4"">4: Very confident</li>
      <li id=""conf-5"">5: Completely confident</li>
    </ul>","5","","","","","",""
"","","","","","psychophysics","208","500931","0.0-13.0-32.0","376785","","1087","","","","","","","","","","","2","key","2","16.66465151515193","768","250","1"
"","","","","","html-keyboard-response","209","501151","0.0-13.0-33.0","376785","","219","","","","","","","","","","
    <p>How confident are you in your response? Press the corresponding keys from 1 to 5 based on your experience</p>
    <ul id=""confidence-levels"">
      <li id=""conf-1"">1: Not at all confident</li>
      <li id=""conf-2"">2: Slightly confident</li>
      <li id=""conf-3"">3: Somewhat confident</li>
      <li id=""conf-4"">4: Very confident</li>
      <li id=""conf-5"">5: Completely confident</li>
    </ul>","5","","","","","",""
"","","","","","psychophysics","210","502033","0.0-13.0-34.0","376785","","877","","","","","","","","","","","2","key","2","16.661773584906083","768","250","1"
"","","","","","html-keyboard-response","211","502212","0.0-13.0-35.0","376785","","178","","","","","","","","","","
    <p>How confident are you in your response? Press the corresponding keys from 1 to 5 based on your experience</p>
    <ul id=""confidence-levels"">
      <li id=""conf-1"">1: Not at all confident</li>
      <li id=""conf-2"">2: Slightly confident</li>
      <li id=""conf-3"">3: Somewhat confident</li>
      <li id=""conf-4"">4: Very confident</li>
      <li id=""conf-5"">5: Completely confident</li>
    </ul>","5","","","","","",""
"","","","","","psychophysics","212","503348","0.0-13.0-36.0","376785","","1131","","","","","","","","","","","2","key","2","16.664544117646393","768","250","1"
"","","","","","html-keyboard-response","213","503505","0.0-13.0-37.0","376785","","156","","","","","","","","","","
    <p>How confident are you in your response? Press the corresponding keys from 1 to 5 based on your experience</p>
    <ul id=""confidence-levels"">
      <li id=""conf-1"">1: Not at all confident</li>
      <li id=""conf-2"">2: Slightly confident</li>
      <li id=""conf-3"">3: Somewhat confident</li>
      <li id=""conf-4"">4: Very confident</li>
      <li id=""conf-5"">5: Completely confident</li>
    </ul>","5","","","","","",""
"","","","","","psychophysics","214","504655","0.0-13.0-38.0","376785","","1146","","","","","","","","","","","2","key","2","16.66813043478296","768","250","1"
"","","","","","html-keyboard-response","215","504841","0.0-13.0-39.0","376785","","185","","","","","","","","","","
    <p>How confident are you in your response? Press the corresponding keys from 1 to 5 based on your experience</p>
    <ul id=""confidence-levels"">
      <li id=""conf-1"">1: Not at all confident</li>
      <li id=""conf-2"">2: Slightly confident</li>
      <li id=""conf-3"">3: Somewhat confident</li>
      <li id=""conf-4"">4: Very confident</li>
      <li id=""conf-5"">5: Completely confident</li>
    </ul>","5","","","","","",""
"","","","","","psychophysics","216","506282","0.0-13.0-40.0","376785","","1437","","","","","","","","","","","1","key","1","16.66548275862066","768","250","1"
"","","","","","html-keyboard-response","217","506460","0.0-13.0-41.0","376785","","178","","","","","","","","","","
    <p>How confident are you in your response? Press the corresponding keys from 1 to 5 based on your experience</p>
    <ul id=""confidence-levels"">
      <li id=""conf-1"">1: Not at all confident</li>
      <li id=""conf-2"">2: Slightly confident</li>
      <li id=""conf-3"">3: Somewhat confident</li>
      <li id=""conf-4"">4: Very confident</li>
      <li id=""conf-5"">5: Completely confident</li>
    </ul>","5","","","","","",""
"","","","","","psychophysics","218","507652","0.0-13.0-42.0","376785","","1188","","","","","","","","","","","1","key","1","16.665760563379877","768","250","1"
"","","","","","html-keyboard-response","219","507802","0.0-13.0-43.0","376785","","149","","","","","","","","","","
    <p>How confident are you in your response? Press the corresponding keys from 1 to 5 based on your experience</p>
    <ul id=""confidence-levels"">
      <li id=""conf-1"">1: Not at all confident</li>
      <li id=""conf-2"">2: Slightly confident</li>
      <li id=""conf-3"">3: Somewhat confident</li>
      <li id=""conf-4"">4: Very confident</li>
      <li id=""conf-5"">5: Completely confident</li>
    </ul>","5","","","","","",""
"","","","","","psychophysics","220","509341","0.0-13.0-44.0","376785","","1534","","","","","","","","","","","1","key","1","16.66603260869527","768","250","1"
"","","","","","html-keyboard-response","221","509502","0.0-13.0-45.0","376785","","160","","","","","","","","","","
    <p>How confident are you in your response? Press the corresponding keys from 1 to 5 based on your experience</p>
    <ul id=""confidence-levels"">
      <li id=""conf-1"">1: Not at all confident</li>
      <li id=""conf-2"">2: Slightly confident</li>
      <li id=""conf-3"">3: Somewhat confident</li>
      <li id=""conf-4"">4: Very confident</li>
      <li id=""conf-5"">5: Completely confident</li>
    </ul>","5","","","","","",""
"","","","","","psychophysics","222","510571","0.0-13.0-46.0","376785","","1065","","","","","","","","","","","2","key","2","16.66735937500016","768","250","1"
"","","","","","html-keyboard-response","223","510760","0.0-13.0-47.0","376785","","188","","","","","","","","","","
    <p>How confident are you in your response? Press the corresponding keys from 1 to 5 based on your experience</p>
    <ul id=""confidence-levels"">
      <li id=""conf-1"">1: Not at all confident</li>
      <li id=""conf-2"">2: Slightly confident</li>
      <li id=""conf-3"">3: Somewhat confident</li>
      <li id=""conf-4"">4: Very confident</li>
      <li id=""conf-5"">5: Completely confident</li>
    </ul>","5","","","","","",""
"","","","","","psychophysics","224","511964","0.0-13.0-48.0","376785","","1199","","","","","","","","","","","1","key","1","16.66440277777777","768","250","1"
"","","","","","html-keyboard-response","225","512108","0.0-13.0-49.0","376785","","143","","","","","","","","","","
    <p>How confident are you in your response? Press the corresponding keys from 1 to 5 based on your experience</p>
    <ul id=""confidence-levels"">
      <li id=""conf-1"">1: Not at all confident</li>
      <li id=""conf-2"">2: Slightly confident</li>
      <li id=""conf-3"">3: Somewhat confident</li>
      <li id=""conf-4"">4: Very confident</li>
      <li id=""conf-5"">5: Completely confident</li>
    </ul>","5","","","","","",""
"","","","","","psychophysics","226","513339","0.0-13.0-50.0","376785","","1227","","","","","","","","","","","1","key","1","16.66537837837854","768","250","1"
"","","","","","html-keyboard-response","227","513500","0.0-13.0-51.0","376785","","160","","","","","","","","","","
    <p>How confident are you in your response? Press the corresponding keys from 1 to 5 based on your experience</p>
    <ul id=""confidence-levels"">
      <li id=""conf-1"">1: Not at all confident</li>
      <li id=""conf-2"">2: Slightly confident</li>
      <li id=""conf-3"">3: Somewhat confident</li>
      <li id=""conf-4"">4: Very confident</li>
      <li id=""conf-5"">5: Completely confident</li>
    </ul>","5","","","","","",""
"","","","","","psychophysics","228","514731","0.0-13.0-52.0","376785","","1227","","","","","","","","","","","1","key","1","16.66456756756776","768","250","1"
"","","","","","html-keyboard-response","229","514878","0.0-13.0-53.0","376785","","146","","","","","","","","","","
    <p>How confident are you in your response? Press the corresponding keys from 1 to 5 based on your experience</p>
    <ul id=""confidence-levels"">
      <li id=""conf-1"">1: Not at all confident</li>
      <li id=""conf-2"">2: Slightly confident</li>
      <li id=""conf-3"">3: Somewhat confident</li>
      <li id=""conf-4"">4: Very confident</li>
      <li id=""conf-5"">5: Completely confident</li>
    </ul>","5","","","","","",""
"","","","","","psychophysics","230","516047","0.0-13.0-54.0","376785","","1165","","","","","","","","","","","1","key","1","16.666599999999328","768","250","1"
"","","","","","html-keyboard-response","231","516174","0.0-13.0-55.0","376785","","126","","","","","","","","","","
    <p>How confident are you in your response? Press the corresponding keys from 1 to 5 based on your experience</p>
    <ul id=""confidence-levels"">
      <li id=""conf-1"">1: Not at all confident</li>
      <li id=""conf-2"">2: Slightly confident</li>
      <li id=""conf-3"">3: Somewhat confident</li>
      <li id=""conf-4"">4: Very confident</li>
      <li id=""conf-5"">5: Completely confident</li>
    </ul>","5","","","","","",""
"","","","","","psychophysics","232","517410","0.0-13.0-56.0","376785","","1230","","","","","","","","","","","1","key","1","16.667851351350986","768","250","1"
"","","","","","html-keyboard-response","233","517547","0.0-13.0-57.0","376785","","136","","","","","","","","","","
    <p>How confident are you in your response? Press the corresponding keys from 1 to 5 based on your experience</p>
    <ul id=""confidence-levels"">
      <li id=""conf-1"">1: Not at all confident</li>
      <li id=""conf-2"">2: Slightly confident</li>
      <li id=""conf-3"">3: Somewhat confident</li>
      <li id=""conf-4"">4: Very confident</li>
      <li id=""conf-5"">5: Completely confident</li>
    </ul>","5","","","","","",""
"","","","","","psychophysics","234","518796","0.0-13.0-58.0","376785","","1244","","","","","","","","","","","1","key","1","16.66702666666669","768","250","1"
"","","","","","html-keyboard-response","235","518947","0.0-13.0-59.0","376785","","150","","","","","","","","","","
    <p>How confident are you in your response? Press the corresponding keys from 1 to 5 based on your experience</p>
    <ul id=""confidence-levels"">
      <li id=""conf-1"">1: Not at all confident</li>
      <li id=""conf-2"">2: Slightly confident</li>
      <li id=""conf-3"">3: Somewhat confident</li>
      <li id=""conf-4"">4: Very confident</li>
      <li id=""conf-5"">5: Completely confident</li>
    </ul>","5","","","","","",""
"","","","","","psychophysics","236","520179","0.0-13.0-60.0","376785","","1228","","","","","","","","","","","2","key","2","16.66624324324358","768","250","1"
"","","","","","html-keyboard-response","237","520433","0.0-13.0-61.0","376785","","253","","","","","","","","","","
    <p>How confident are you in your response? Press the corresponding keys from 1 to 5 based on your experience</p>
    <ul id=""confidence-levels"">
      <li id=""conf-1"">1: Not at all confident</li>
      <li id=""conf-2"">2: Slightly confident</li>
      <li id=""conf-3"">3: Somewhat confident</li>
      <li id=""conf-4"">4: Very confident</li>
      <li id=""conf-5"">5: Completely confident</li>
    </ul>","5","","","","","",""
"","","","","","psychophysics","238","521745","0.0-13.0-62.0","376785","","1307","","","","","","","","","","","1","key","1","16.666822784810172","768","250","1"
"","","","","","html-keyboard-response","239","521901","0.0-13.0-63.0","376785","","156","","","","","","","","","","
    <p>How confident are you in your response? Press the corresponding keys from 1 to 5 based on your experience</p>
    <ul id=""confidence-levels"">
      <li id=""conf-1"">1: Not at all confident</li>
      <li id=""conf-2"">2: Slightly confident</li>
      <li id=""conf-3"">3: Somewhat confident</li>
      <li id=""conf-4"">4: Very confident</li>
      <li id=""conf-5"">5: Completely confident</li>
    </ul>","5","","","","","",""
"","","","","","psychophysics","240","523132","0.0-13.0-64.0","376785","","1228","","","","","","","","","","","1","key","1","16.66641891891895","768","250","1"
"","","","","","html-keyboard-response","241","523293","0.0-13.0-65.0","376785","","160","","","","","","","","","","
    <p>How confident are you in your response? Press the corresponding keys from 1 to 5 based on your experience</p>
    <ul id=""confidence-levels"">
      <li id=""conf-1"">1: Not at all confident</li>
      <li id=""conf-2"">2: Slightly confident</li>
      <li id=""conf-3"">3: Somewhat confident</li>
      <li id=""conf-4"">4: Very confident</li>
      <li id=""conf-5"">5: Completely confident</li>
    </ul>","5","","","","","",""
"","","","","","psychophysics","242","524454","0.0-13.0-66.0","376785","","1156","","","","","","","","","","","2","key","2","16.667202898550045","768","250","1"
"","","","","","html-keyboard-response","243","524572","0.0-13.0-67.0","376785","","117","","","","","","","","","","
    <p>How confident are you in your response? Press the corresponding keys from 1 to 5 based on your experience</p>
    <ul id=""confidence-levels"">
      <li id=""conf-1"">1: Not at all confident</li>
      <li id=""conf-2"">2: Slightly confident</li>
      <li id=""conf-3"">3: Somewhat confident</li>
      <li id=""conf-4"">4: Very confident</li>
      <li id=""conf-5"">5: Completely confident</li>
    </ul>","5","","","","","",""
"","","","","","psychophysics","244","525710","0.0-13.0-68.0","376785","","1135","","","","","","","","","","","1","key","1","16.666058823529646","768","250","1"
"","","","","","html-keyboard-response","245","525854","0.0-13.0-69.0","376785","","143","","","","","","","","","","
    <p>How confident are you in your response? Press the corresponding keys from 1 to 5 based on your experience</p>
    <ul id=""confidence-levels"">
      <li id=""conf-1"">1: Not at all confident</li>
      <li id=""conf-2"">2: Slightly confident</li>
      <li id=""conf-3"">3: Somewhat confident</li>
      <li id=""conf-4"">4: Very confident</li>
      <li id=""conf-5"">5: Completely confident</li>
    </ul>","5","","","","","",""
"","","","","","psychophysics","246","526957","0.0-13.0-70.0","376785","","1099","","","","","","","","","","","2","key","2","16.666772727272473","768","250","1"
"","","","","","html-keyboard-response","247","527079","0.0-13.0-71.0","376785","","121","","","","","","","","","","
    <p>How confident are you in your response? Press the corresponding keys from 1 to 5 based on your experience</p>
    <ul id=""confidence-levels"">
      <li id=""conf-1"">1: Not at all confident</li>
      <li id=""conf-2"">2: Slightly confident</li>
      <li id=""conf-3"">3: Somewhat confident</li>
      <li id=""conf-4"">4: Very confident</li>
      <li id=""conf-5"">5: Completely confident</li>
    </ul>","5","","","","","",""
"","","","","","psychophysics","248","528266","0.0-13.0-72.0","376785","","1181","","","","","","","","","","","1","key","1","16.666380281689655","768","250","1"
"","","","","","html-keyboard-response","249","528650","0.0-13.0-73.0","376785","","384","","","","","","","","","","
    <p>How confident are you in your response? Press the corresponding keys from 1 to 5 based on your experience</p>
    <ul id=""confidence-levels"">
      <li id=""conf-1"">1: Not at all confident</li>
      <li id=""conf-2"">2: Slightly confident</li>
      <li id=""conf-3"">3: Somewhat confident</li>
      <li id=""conf-4"">4: Very confident</li>
      <li id=""conf-5"">5: Completely confident</li>
    </ul>","5","","","","","",""
"","","","","","psychophysics","250","529945","0.0-13.0-74.0","376785","","1291","","","","","","","","","","","1","key","1","16.66507692307753","768","250","1"
"","","","","","html-keyboard-response","251","530117","0.0-13.0-75.0","376785","","171","","","","","","","","","","
    <p>How confident are you in your response? Press the corresponding keys from 1 to 5 based on your experience</p>
    <ul id=""confidence-levels"">
      <li id=""conf-1"">1: Not at all confident</li>
      <li id=""conf-2"">2: Slightly confident</li>
      <li id=""conf-3"">3: Somewhat confident</li>
      <li id=""conf-4"">4: Very confident</li>
      <li id=""conf-5"">5: Completely confident</li>
    </ul>","5","","","","","",""
"","","","","","psychophysics","252","531265","0.0-13.0-76.0","376785","","1145","","","","","","","","","","","1","key","1","16.666057971014265","768","250","1"
"","","","","","html-keyboard-response","253","531434","0.0-13.0-77.0","376785","","167","","","","","","","","","","
    <p>How confident are you in your response? Press the corresponding keys from 1 to 5 based on your experience</p>
    <ul id=""confidence-levels"">
      <li id=""conf-1"">1: Not at all confident</li>
      <li id=""conf-2"">2: Slightly confident</li>
      <li id=""conf-3"">3: Somewhat confident</li>
      <li id=""conf-4"">4: Very confident</li>
      <li id=""conf-5"">5: Completely confident</li>
    </ul>","5","","","","","",""
"","","","","","psychophysics","254","532692","0.0-13.0-78.0","376785","","1254","","","","","","","","","","","2","key","2","16.665693333333667","768","250","1"
"","","","","","html-keyboard-response","255","532831","0.0-13.0-79.0","376785","","137","","","","","","","","","","
    <p>How confident are you in your response? Press the corresponding keys from 1 to 5 based on your experience</p>
    <ul id=""confidence-levels"">
      <li id=""conf-1"">1: Not at all confident</li>
      <li id=""conf-2"">2: Slightly confident</li>
      <li id=""conf-3"">3: Somewhat confident</li>
      <li id=""conf-4"">4: Very confident</li>
      <li id=""conf-5"">5: Completely confident</li>
    </ul>","5","","","","","",""
"","","","","","psychophysics","256","534010","0.0-13.0-80.0","376785","","1176","","","","","","","","","","","1","key","1","16.66584285714198","768","250","1"
"","","","","","html-keyboard-response","257","534151","0.0-13.0-81.0","376785","","141","","","","","","","","","","
    <p>How confident are you in your response? Press the corresponding keys from 1 to 5 based on your experience</p>
    <ul id=""confidence-levels"">
      <li id=""conf-1"">1: Not at all confident</li>
      <li id=""conf-2"">2: Slightly confident</li>
      <li id=""conf-3"">3: Somewhat confident</li>
      <li id=""conf-4"">4: Very confident</li>
      <li id=""conf-5"">5: Completely confident</li>
    </ul>","5","","","","","",""
"","","","","","psychophysics","258","535355","0.0-13.0-82.0","376785","","1200","","","","","","","","","","","1","key","1","16.667569444445284","768","250","1"
"","","","","","html-keyboard-response","259","535539","0.0-13.0-83.0","376785","","183","","","","","","","","","","
    <p>How confident are you in your response? Press the corresponding keys from 1 to 5 based on your experience</p>
    <ul id=""confidence-levels"">
      <li id=""conf-1"">1: Not at all confident</li>
      <li id=""conf-2"">2: Slightly confident</li>
      <li id=""conf-3"">3: Somewhat confident</li>
      <li id=""conf-4"">4: Very confident</li>
      <li id=""conf-5"">5: Completely confident</li>
    </ul>","5","","","","","",""
"","","","","","psychophysics","260","536725","0.0-13.0-84.0","376785","","1181","","","","","","","","","","","1","key","1","16.667169014085413","768","250","1"
"","","","","","html-keyboard-response","261","536867","0.0-13.0-85.0","376785","","141","","","","","","","","","","
    <p>How confident are you in your response? Press the corresponding keys from 1 to 5 based on your experience</p>
    <ul id=""confidence-levels"">
      <li id=""conf-1"">1: Not at all confident</li>
      <li id=""conf-2"">2: Slightly confident</li>
      <li id=""conf-3"">3: Somewhat confident</li>
      <li id=""conf-4"">4: Very confident</li>
      <li id=""conf-5"">5: Completely confident</li>
    </ul>","5","","","","","",""
"","","","","","psychophysics","262","538099","0.0-13.0-86.0","376785","","1227","","","","","","","","","","","1","key","1","16.66666216216195","768","250","1"
"","","","","","html-keyboard-response","263","538234","0.0-13.0-87.0","376785","","134","","","","","","","","","","
    <p>How confident are you in your response? Press the corresponding keys from 1 to 5 based on your experience</p>
    <ul id=""confidence-levels"">
      <li id=""conf-1"">1: Not at all confident</li>
      <li id=""conf-2"">2: Slightly confident</li>
      <li id=""conf-3"">3: Somewhat confident</li>
      <li id=""conf-4"">4: Very confident</li>
      <li id=""conf-5"">5: Completely confident</li>
    </ul>","5","","","","","",""
"","","","","","psychophysics","264","539613","0.0-13.0-88.0","376785","","1376","","","","","","","","","","","2","key","2","16.66408433735017","768","250","1"
"","","","","","html-keyboard-response","265","539782","0.0-13.0-89.0","376785","","168","","","","","","","","","","
    <p>How confident are you in your response? Press the corresponding keys from 1 to 5 based on your experience</p>
    <ul id=""confidence-levels"">
      <li id=""conf-1"">1: Not at all confident</li>
      <li id=""conf-2"">2: Slightly confident</li>
      <li id=""conf-3"">3: Somewhat confident</li>
      <li id=""conf-4"">4: Very confident</li>
      <li id=""conf-5"">5: Completely confident</li>
    </ul>","5","","","","","",""
"","","","","","psychophysics","266","541319","0.0-13.0-90.0","376785","","1532","","","","","","","","","","","1","key","1","16.666989130434914","768","250","1"
"","","","","","html-keyboard-response","267","541821","0.0-13.0-91.0","376785","","502","","","","","","","","","","
    <p>How confident are you in your response? Press the corresponding keys from 1 to 5 based on your experience</p>
    <ul id=""confidence-levels"">
      <li id=""conf-1"">1: Not at all confident</li>
      <li id=""conf-2"">2: Slightly confident</li>
      <li id=""conf-3"">3: Somewhat confident</li>
      <li id=""conf-4"">4: Very confident</li>
      <li id=""conf-5"">5: Completely confident</li>
    </ul>","5","","","","","",""
"","","","","","psychophysics","268","543058","0.0-13.0-92.0","376785","","1232","","","","","","","","","","","2","key","2","16.66474324324313","768","250","1"
"","","","","","html-keyboard-response","269","543228","0.0-13.0-93.0","376785","","169","","","","","","","","","","
    <p>How confident are you in your response? Press the corresponding keys from 1 to 5 based on your experience</p>
    <ul id=""confidence-levels"">
      <li id=""conf-1"">1: Not at all confident</li>
      <li id=""conf-2"">2: Slightly confident</li>
      <li id=""conf-3"">3: Somewhat confident</li>
      <li id=""conf-4"">4: Very confident</li>
      <li id=""conf-5"">5: Completely confident</li>
    </ul>","5","","","","","",""
"","","","","","psychophysics","270","544846","0.0-13.0-94.0","376785","","1615","","","","","","","","","","","2","key","2","16.667268041238074","768","250","1"
"","","","","","html-keyboard-response","271","545024","0.0-13.0-95.0","376785","","177","","","","","","","","","","
    <p>How confident are you in your response? Press the corresponding keys from 1 to 5 based on your experience</p>
    <ul id=""confidence-levels"">
      <li id=""conf-1"">1: Not at all confident</li>
      <li id=""conf-2"">2: Slightly confident</li>
      <li id=""conf-3"">3: Somewhat confident</li>
      <li id=""conf-4"">4: Very confident</li>
      <li id=""conf-5"">5: Completely confident</li>
    </ul>","5","","","","","",""
"","","","","","psychophysics","272","546274","0.0-13.0-96.0","376785","","1248","","","","","","","","","","","1","key","1","16.667546666666556","768","250","1"
"","","","","","html-keyboard-response","273","546466","0.0-13.0-97.0","376785","","191","","","","","","","","","","
    <p>How confident are you in your response? Press the corresponding keys from 1 to 5 based on your experience</p>
    <ul id=""confidence-levels"">
      <li id=""conf-1"">1: Not at all confident</li>
      <li id=""conf-2"">2: Slightly confident</li>
      <li id=""conf-3"">3: Somewhat confident</li>
      <li id=""conf-4"">4: Very confident</li>
      <li id=""conf-5"">5: Completely confident</li>
    </ul>","5","","","","","",""
"","","","","","html-keyboard-response","274","548828","0.0-14.0","376785","","2362","","","","","","","","","","Your average response time is 720.194 ms You are doing great"," ","","","","","",""
"","","","","","survey-text","275","600599","0.0-15.0","376785","","51760","","","","","","","","","","","{""EasyToUnderstand"":""Yes"",""Suggestions"":""na"",""Interface"":""great"",""Perception"":""yes (:""}","","","","","",""
"","","","","","html-keyboard-response","276","605600","0.0-16.0","376785","","null","","","","","","","","","","You have successfully completed all the trials. Thank you for your time. Goodbye :)","null","","","","","",""
