"success","timeout","failed_images","failed_audio","failed_video","trial_type","trial_index","time_elapsed","internal_node_id","participant_id","view_history","rt","item_width_mm","item_height_mm","item_width_px","px2mm","view_dist_mm","item_width_deg","px2deg","win_width_deg","win_height_deg","stimulus","response","response_type","key_press","avg_frame_time","center_x","center_y","correct_response","illusion"
"true","false","[]","[]","[]","preload","0","11","0.0-0.0","481415","","","","","","","","","","","","","","","","","","","",""
"","","","","","instructions","1","4137","0.0-1.0","481415","[{""page_index"":0,""viewing_time"":2076},{""page_index"":1,""viewing_time"":1018},{""page_index"":2,""viewing_time"":1028}]","4125","","","","","","","","","","","","","","","","","",""
"true","","","","","fullscreen","2","6245","0.0-2.0","481415","","","","","","","","","","","","","","","","","","","",""
"","","","","","virtual-chinrest","3","25470","0.0-3.0","481415","","19221","85.6","53.98","352","4.11","659.76","7.423390339629275","47.417687053430484","32.3929760274732","18.221049015453676","","","","","","","","",""
"","","","","","html-keyboard-response","4","25926","0.0-4.0","481415","","454","","","","","","","","","","This is just trial run, press Space bar to continue"," ","","","","","","",""
"","","","","","psychophysics","5","27337","0.0-5.0-0.0","481415","","1406","","","","","","","","","","","0","key","0","16.720294117647086","768","250","0","NO"
"","","","","","psychophysics","6","28899","0.0-5.0-1.0","481415","","1558","","","","","","","","","","","1","key","1","16.65808602150539","768","250","1","No"
"","","","","","psychophysics","7","29978","0.0-5.0-2.0","481415","","1077","","","","","","","","","","","1","key","1","16.663222222222213","768","250","1","NO"
"","","","","","psychophysics","8","31076","0.0-5.0-3.0","481415","","1095","","","","","","","","","","","1","key","1","16.66183076923077","768","250","1","No"
"","","","","","psychophysics","9","32725","0.0-5.0-4.0","481415","","1646","","","","","","","","","","","0","key","0","16.662234693877526","768","250","0","NO"
"","","","","","psychophysics","10","34159","0.0-5.0-5.0","481415","","1417","","","","","","","","","","","2","key","2","16.66181176470589","768","250","1","YES"
"","","","","","psychophysics","11","35334","0.0-5.0-6.0","481415","","1171","","","","","","","","","","","2","key","2","16.66181428571425","768","250","1","YES"
"","","","","","psychophysics","12","37435","0.0-5.0-7.0","481415","","2097","","","","","","","","","","","0","key","0","16.66332800000004","768","250","1","NO"
"","","","","","html-keyboard-response","13","38456","0.0-6.0","481415","","1021","","","","","","","","","","You have successfully completed the pilot , Press Space bar to continue to main block of experiment"," ","","","","","","",""
"","","","","","psychophysics","14","39510","0.0-7.0-0.0","481415","","1049","","","","","","","","","","","1","key","1","16.614793650793594","768","250","1","No"
"","","","","","html-keyboard-response","15","40907","0.0-7.0-1.0","481415","","1396","","","","","","","","","","
    <p>How confident are you in your response? Press the corresponding keys from 1 to 5 based on your experience</p>
    <ul id=""confidence-levels"">
      <li id=""conf-1"">1: Not at all confident</li>
      <li id=""conf-2"">2: Slightly confident</li>
      <li id=""conf-3"">3: Somewhat confident</li>
      <li id=""conf-4"">4: Very confident</li>
      <li id=""conf-5"">5: Completely confident</li>
    </ul>","4","","","","","","",""
"","","","","","psychophysics","16","42828","0.0-7.0-2.0","481415","","1919","","","","","","","","","","","0","key","0","16.604672413793104","768","250","0","NO"
"","","","","","html-keyboard-response","17","43186","0.0-7.0-3.0","481415","","358","","","","","","","","","","
    <p>How confident are you in your response? Press the corresponding keys from 1 to 5 based on your experience</p>
    <ul id=""confidence-levels"">
      <li id=""conf-1"">1: Not at all confident</li>
      <li id=""conf-2"">2: Slightly confident</li>
      <li id=""conf-3"">3: Somewhat confident</li>
      <li id=""conf-4"">4: Very confident</li>
      <li id=""conf-5"">5: Completely confident</li>
    </ul>","4","","","","","","",""
"","","","","","psychophysics","18","44646","0.0-7.0-4.0","481415","","1455","","","","","","","","","","","0","key","0","16.564670454545443","768","250","0","NO"
"","","","","","html-keyboard-response","19","45077","0.0-7.0-5.0","481415","","430","","","","","","","","","","
    <p>How confident are you in your response? Press the corresponding keys from 1 to 5 based on your experience</p>
    <ul id=""confidence-levels"">
      <li id=""conf-1"">1: Not at all confident</li>
      <li id=""conf-2"">2: Slightly confident</li>
      <li id=""conf-3"">3: Somewhat confident</li>
      <li id=""conf-4"">4: Very confident</li>
      <li id=""conf-5"">5: Completely confident</li>
    </ul>","5","","","","","","",""
"","","","","","psychophysics","20","46212","0.0-7.0-6.0","481415","","1131","","","","","","","","","","","0","key","0","16.752044117647102","768","250","0","NO"
"","","","","","html-keyboard-response","21","46664","0.0-7.0-7.0","481415","","452","","","","","","","","","","
    <p>How confident are you in your response? Press the corresponding keys from 1 to 5 based on your experience</p>
    <ul id=""confidence-levels"">
      <li id=""conf-1"">1: Not at all confident</li>
      <li id=""conf-2"">2: Slightly confident</li>
      <li id=""conf-3"">3: Somewhat confident</li>
      <li id=""conf-4"">4: Very confident</li>
      <li id=""conf-5"">5: Completely confident</li>
    </ul>","5","","","","","","",""
"","","","","","psychophysics","22","47905","0.0-7.0-8.0","481415","","1239","","","","","","","","","","","1","key","1","16.733391891891902","768","250","1","No"
"","","","","","html-keyboard-response","23","49311","0.0-7.0-9.0","481415","","1405","","","","","","","","","","
    <p>How confident are you in your response? Press the corresponding keys from 1 to 5 based on your experience</p>
    <ul id=""confidence-levels"">
      <li id=""conf-1"">1: Not at all confident</li>
      <li id=""conf-2"">2: Slightly confident</li>
      <li id=""conf-3"">3: Somewhat confident</li>
      <li id=""conf-4"">4: Very confident</li>
      <li id=""conf-5"">5: Completely confident</li>
    </ul>","4","","","","","","",""
"","","","","","psychophysics","24","50733","0.0-7.0-10.0","481415","","1416","","","","","","","","","","","0","key","0","16.775799999999993","768","250","0","NO"
"","","","","","html-keyboard-response","25","51210","0.0-7.0-11.0","481415","","476","","","","","","","","","","
    <p>How confident are you in your response? Press the corresponding keys from 1 to 5 based on your experience</p>
    <ul id=""confidence-levels"">
      <li id=""conf-1"">1: Not at all confident</li>
      <li id=""conf-2"">2: Slightly confident</li>
      <li id=""conf-3"">3: Somewhat confident</li>
      <li id=""conf-4"">4: Very confident</li>
      <li id=""conf-5"">5: Completely confident</li>
    </ul>","4","","","","","","",""
"","","","","","psychophysics","26","52671","0.0-7.0-12.0","481415","","1458","","","","","","","","","","","1","key","1","16.71412643678162","768","250","1","NO"
"","","","","","html-keyboard-response","27","54756","0.0-7.0-13.0","481415","","2084","","","","","","","","","","
    <p>How confident are you in your response? Press the corresponding keys from 1 to 5 based on your experience</p>
    <ul id=""confidence-levels"">
      <li id=""conf-1"">1: Not at all confident</li>
      <li id=""conf-2"">2: Slightly confident</li>
      <li id=""conf-3"">3: Somewhat confident</li>
      <li id=""conf-4"">4: Very confident</li>
      <li id=""conf-5"">5: Completely confident</li>
    </ul>","4","","","","","","",""
"","","","","","psychophysics","28","56202","0.0-7.0-14.0","481415","","1441","","","","","","","","","","","1","key","1","16.74373255813957","768","250","1","NO"
"","","","","","html-keyboard-response","29","56721","0.0-7.0-15.0","481415","","519","","","","","","","","","","
    <p>How confident are you in your response? Press the corresponding keys from 1 to 5 based on your experience</p>
    <ul id=""confidence-levels"">
      <li id=""conf-1"">1: Not at all confident</li>
      <li id=""conf-2"">2: Slightly confident</li>
      <li id=""conf-3"">3: Somewhat confident</li>
      <li id=""conf-4"">4: Very confident</li>
      <li id=""conf-5"">5: Completely confident</li>
    </ul>","4","","","","","","",""
"","","","","","psychophysics","30","57956","0.0-7.0-16.0","481415","","1233","","","","","","","","","","","1","key","1","16.695662162162154","768","250","1","NO"
"","","","","","html-keyboard-response","31","58306","0.0-7.0-17.0","481415","","349","","","","","","","","","","
    <p>How confident are you in your response? Press the corresponding keys from 1 to 5 based on your experience</p>
    <ul id=""confidence-levels"">
      <li id=""conf-1"">1: Not at all confident</li>
      <li id=""conf-2"">2: Slightly confident</li>
      <li id=""conf-3"">3: Somewhat confident</li>
      <li id=""conf-4"">4: Very confident</li>
      <li id=""conf-5"">5: Completely confident</li>
    </ul>","4","","","","","","",""
"","","","","","psychophysics","32","59692","0.0-7.0-18.0","481415","","1379","","","","","","","","","","","2","key","2","16.758759036144564","768","250","1","YES"
"","","","","","html-keyboard-response","33","59974","0.0-7.0-19.0","481415","","282","","","","","","","","","","
    <p>How confident are you in your response? Press the corresponding keys from 1 to 5 based on your experience</p>
    <ul id=""confidence-levels"">
      <li id=""conf-1"">1: Not at all confident</li>
      <li id=""conf-2"">2: Slightly confident</li>
      <li id=""conf-3"">3: Somewhat confident</li>
      <li id=""conf-4"">4: Very confident</li>
      <li id=""conf-5"">5: Completely confident</li>
    </ul>","4","","","","","","",""
"","","","","","psychophysics","34","61629","0.0-7.0-20.0","481415","","1650","","","","","","","","","","","0","key","0","16.76368686868683","768","250","0","NO"
"","","","","","html-keyboard-response","35","62612","0.0-7.0-21.0","481415","","983","","","","","","","","","","
    <p>How confident are you in your response? Press the corresponding keys from 1 to 5 based on your experience</p>
    <ul id=""confidence-levels"">
      <li id=""conf-1"">1: Not at all confident</li>
      <li id=""conf-2"">2: Slightly confident</li>
      <li id=""conf-3"">3: Somewhat confident</li>
      <li id=""conf-4"">4: Very confident</li>
      <li id=""conf-5"">5: Completely confident</li>
    </ul>","4","","","","","","",""
"","","","","","psychophysics","36","63999","0.0-7.0-22.0","481415","","1382","","","","","","","","","","","2","key","2","16.739120481927642","768","250","1","YES"
"","","","","","html-keyboard-response","37","64453","0.0-7.0-23.0","481415","","454","","","","","","","","","","
    <p>How confident are you in your response? Press the corresponding keys from 1 to 5 based on your experience</p>
    <ul id=""confidence-levels"">
      <li id=""conf-1"">1: Not at all confident</li>
      <li id=""conf-2"">2: Slightly confident</li>
      <li id=""conf-3"">3: Somewhat confident</li>
      <li id=""conf-4"">4: Very confident</li>
      <li id=""conf-5"">5: Completely confident</li>
    </ul>","4","","","","","","",""
"","","","","","psychophysics","38","65914","0.0-7.0-24.0","481415","","1455","","","","","","","","","","","1","key","1","16.719126436781675","768","250","1","No"
"","","","","","html-keyboard-response","39","66254","0.0-7.0-25.0","481415","","340","","","","","","","","","","
    <p>How confident are you in your response? Press the corresponding keys from 1 to 5 based on your experience</p>
    <ul id=""confidence-levels"">
      <li id=""conf-1"">1: Not at all confident</li>
      <li id=""conf-2"">2: Slightly confident</li>
      <li id=""conf-3"">3: Somewhat confident</li>
      <li id=""conf-4"">4: Very confident</li>
      <li id=""conf-5"">5: Completely confident</li>
    </ul>","4","","","","","","",""
"","","","","","psychophysics","40","67816","0.0-7.0-26.0","481415","","1559","","","","","","","","","","","2","key","2","16.747806451612927","768","250","1","YES"
"","","","","","html-keyboard-response","41","68186","0.0-7.0-27.0","481415","","370","","","","","","","","","","
    <p>How confident are you in your response? Press the corresponding keys from 1 to 5 based on your experience</p>
    <ul id=""confidence-levels"">
      <li id=""conf-1"">1: Not at all confident</li>
      <li id=""conf-2"">2: Slightly confident</li>
      <li id=""conf-3"">3: Somewhat confident</li>
      <li id=""conf-4"">4: Very confident</li>
      <li id=""conf-5"">5: Completely confident</li>
    </ul>","4","","","","","","",""
"","","","","","psychophysics","42","69415","0.0-7.0-28.0","481415","","1224","","","","","","","","","","","2","key","2","16.762369863013777","768","250","1","YES"
"","","","","","html-keyboard-response","43","69782","0.0-7.0-29.0","481415","","366","","","","","","","","","","
    <p>How confident are you in your response? Press the corresponding keys from 1 to 5 based on your experience</p>
    <ul id=""confidence-levels"">
      <li id=""conf-1"">1: Not at all confident</li>
      <li id=""conf-2"">2: Slightly confident</li>
      <li id=""conf-3"">3: Somewhat confident</li>
      <li id=""conf-4"">4: Very confident</li>
      <li id=""conf-5"">5: Completely confident</li>
    </ul>","4","","","","","","",""
"","","","","","psychophysics","44","71017","0.0-7.0-30.0","481415","","1230","","","","","","","","","","","2","key","2","16.52947297297293","768","250","1","YES"
"","","","","","html-keyboard-response","45","71378","0.0-7.0-31.0","481415","","360","","","","","","","","","","
    <p>How confident are you in your response? Press the corresponding keys from 1 to 5 based on your experience</p>
    <ul id=""confidence-levels"">
      <li id=""conf-1"">1: Not at all confident</li>
      <li id=""conf-2"">2: Slightly confident</li>
      <li id=""conf-3"">3: Somewhat confident</li>
      <li id=""conf-4"">4: Very confident</li>
      <li id=""conf-5"">5: Completely confident</li>
    </ul>","4","","","","","","",""
"","","","","","psychophysics","46","73362","0.0-7.0-32.0","481415","","1981","","","","","","","","","","","0","key","0","16.582067226890782","768","250","0","NO"
"","","","","","html-keyboard-response","47","75076","0.0-7.0-33.0","481415","","1714","","","","","","","","","","
    <p>How confident are you in your response? Press the corresponding keys from 1 to 5 based on your experience</p>
    <ul id=""confidence-levels"">
      <li id=""conf-1"">1: Not at all confident</li>
      <li id=""conf-2"">2: Slightly confident</li>
      <li id=""conf-3"">3: Somewhat confident</li>
      <li id=""conf-4"">4: Very confident</li>
      <li id=""conf-5"">5: Completely confident</li>
    </ul>","2","","","","","","",""
"","","","","","psychophysics","48","76622","0.0-7.0-34.0","481415","","1542","","","","","","","","","","","1","key","1","16.661483870967704","768","250","1","NO"
"","","","","","html-keyboard-response","49","76989","0.0-7.0-35.0","481415","","365","","","","","","","","","","
    <p>How confident are you in your response? Press the corresponding keys from 1 to 5 based on your experience</p>
    <ul id=""confidence-levels"">
      <li id=""conf-1"">1: Not at all confident</li>
      <li id=""conf-2"">2: Slightly confident</li>
      <li id=""conf-3"">3: Somewhat confident</li>
      <li id=""conf-4"">4: Very confident</li>
      <li id=""conf-5"">5: Completely confident</li>
    </ul>","3","","","","","","",""
"","","","","","psychophysics","50","78250","0.0-7.0-36.0","481415","","1256","","","","","","","","","","","1","key","1","16.764276315789367","768","250","1","No"
"","","","","","html-keyboard-response","51","78633","0.0-7.0-37.0","481415","","382","","","","","","","","","","
    <p>How confident are you in your response? Press the corresponding keys from 1 to 5 based on your experience</p>
    <ul id=""confidence-levels"">
      <li id=""conf-1"">1: Not at all confident</li>
      <li id=""conf-2"">2: Slightly confident</li>
      <li id=""conf-3"">3: Somewhat confident</li>
      <li id=""conf-4"">4: Very confident</li>
      <li id=""conf-5"">5: Completely confident</li>
    </ul>","3","","","","","","",""
"","","","","","psychophysics","52","79861","0.0-7.0-38.0","481415","","1221","","","","","","","","","","","1","key","1","16.764917808219078","768","250","1","NO"
"","","","","","html-keyboard-response","53","80189","0.0-7.0-39.0","481415","","327","","","","","","","","","","
    <p>How confident are you in your response? Press the corresponding keys from 1 to 5 based on your experience</p>
    <ul id=""confidence-levels"">
      <li id=""conf-1"">1: Not at all confident</li>
      <li id=""conf-2"">2: Slightly confident</li>
      <li id=""conf-3"">3: Somewhat confident</li>
      <li id=""conf-4"">4: Very confident</li>
      <li id=""conf-5"">5: Completely confident</li>
    </ul>","3","","","","","","",""
"","","","","","psychophysics","54","81775","0.0-7.0-40.0","481415","","1581","","","","","","","","","","","0","key","0","16.659789473684135","768","250","0","NO"
"","","","","","html-keyboard-response","55","83405","0.0-7.0-41.0","481415","","1629","","","","","","","","","","
    <p>How confident are you in your response? Press the corresponding keys from 1 to 5 based on your experience</p>
    <ul id=""confidence-levels"">
      <li id=""conf-1"">1: Not at all confident</li>
      <li id=""conf-2"">2: Slightly confident</li>
      <li id=""conf-3"">3: Somewhat confident</li>
      <li id=""conf-4"">4: Very confident</li>
      <li id=""conf-5"">5: Completely confident</li>
    </ul>","3","","","","","","",""
"","","","","","psychophysics","56","84602","0.0-7.0-42.0","481415","","1193","","","","","","","","","","","2","key","2","17.137914285714423","768","250","1","YES"
"","","","","","html-keyboard-response","57","84996","0.0-7.0-43.0","481415","","392","","","","","","","","","","
    <p>How confident are you in your response? Press the corresponding keys from 1 to 5 based on your experience</p>
    <ul id=""confidence-levels"">
      <li id=""conf-1"">1: Not at all confident</li>
      <li id=""conf-2"">2: Slightly confident</li>
      <li id=""conf-3"">3: Somewhat confident</li>
      <li id=""conf-4"">4: Very confident</li>
      <li id=""conf-5"">5: Completely confident</li>
    </ul>","4","","","","","","",""
"","","","","","psychophysics","58","86188","0.0-7.0-44.0","481415","","1186","","","","","","","","","","","2","key","2","16.783492957746436","768","250","1","NO"
"","","","","","html-keyboard-response","59","86478","0.0-7.0-45.0","481415","","288","","","","","","","","","","
    <p>How confident are you in your response? Press the corresponding keys from 1 to 5 based on your experience</p>
    <ul id=""confidence-levels"">
      <li id=""conf-1"">1: Not at all confident</li>
      <li id=""conf-2"">2: Slightly confident</li>
      <li id=""conf-3"">3: Somewhat confident</li>
      <li id=""conf-4"">4: Very confident</li>
      <li id=""conf-5"">5: Completely confident</li>
    </ul>","4","","","","","","",""
"","","","","","psychophysics","60","87740","0.0-7.0-46.0","481415","","1255","","","","","","","","","","","2","key","2","16.78774666666674","768","250","1","No"
"","","","","","html-keyboard-response","61","88043","0.0-7.0-47.0","481415","","302","","","","","","","","","","
    <p>How confident are you in your response? Press the corresponding keys from 1 to 5 based on your experience</p>
    <ul id=""confidence-levels"">
      <li id=""conf-1"">1: Not at all confident</li>
      <li id=""conf-2"">2: Slightly confident</li>
      <li id=""conf-3"">3: Somewhat confident</li>
      <li id=""conf-4"">4: Very confident</li>
      <li id=""conf-5"">5: Completely confident</li>
    </ul>","4","","","","","","",""
"","","","","","psychophysics","62","89273","0.0-7.0-48.0","481415","","1226","","","","","","","","","","","2","key","2","16.559702702702577","768","250","1","No"
"","","","","","html-keyboard-response","63","89535","0.0-7.0-49.0","481415","","261","","","","","","","","","","
    <p>How confident are you in your response? Press the corresponding keys from 1 to 5 based on your experience</p>
    <ul id=""confidence-levels"">
      <li id=""conf-1"">1: Not at all confident</li>
      <li id=""conf-2"">2: Slightly confident</li>
      <li id=""conf-3"">3: Somewhat confident</li>
      <li id=""conf-4"">4: Very confident</li>
      <li id=""conf-5"">5: Completely confident</li>
    </ul>","4","","","","","","",""
"","","","","","psychophysics","64","90946","0.0-7.0-50.0","481415","","1406","","","","","","","","","","","2","key","2","16.592188235294067","768","250","1","YES"
"","","","","","html-keyboard-response","65","91238","0.0-7.0-51.0","481415","","291","","","","","","","","","","
    <p>How confident are you in your response? Press the corresponding keys from 1 to 5 based on your experience</p>
    <ul id=""confidence-levels"">
      <li id=""conf-1"">1: Not at all confident</li>
      <li id=""conf-2"">2: Slightly confident</li>
      <li id=""conf-3"">3: Somewhat confident</li>
      <li id=""conf-4"">4: Very confident</li>
      <li id=""conf-5"">5: Completely confident</li>
    </ul>","4","","","","","","",""
"","","","","","psychophysics","66","93627","0.0-7.0-52.0","481415","","2385","","","","","","","","","","","1","key","1","16.611597222222272","768","250","0","NO"
"","","","","","html-keyboard-response","67","94232","0.0-7.0-53.0","481415","","604","","","","","","","","","","
    <p>How confident are you in your response? Press the corresponding keys from 1 to 5 based on your experience</p>
    <ul id=""confidence-levels"">
      <li id=""conf-1"">1: Not at all confident</li>
      <li id=""conf-2"">2: Slightly confident</li>
      <li id=""conf-3"">3: Somewhat confident</li>
      <li id=""conf-4"">4: Very confident</li>
      <li id=""conf-5"">5: Completely confident</li>
    </ul>","3","","","","","","",""
"","","","","","psychophysics","68","95616","0.0-7.0-54.0","481415","","1379","","","","","","","","","","","2","key","2","16.661421686747","768","250","1","YES"
"","","","","","html-keyboard-response","69","95896","0.0-7.0-55.0","481415","","278","","","","","","","","","","
    <p>How confident are you in your response? Press the corresponding keys from 1 to 5 based on your experience</p>
    <ul id=""confidence-levels"">
      <li id=""conf-1"">1: Not at all confident</li>
      <li id=""conf-2"">2: Slightly confident</li>
      <li id=""conf-3"">3: Somewhat confident</li>
      <li id=""conf-4"">4: Very confident</li>
      <li id=""conf-5"">5: Completely confident</li>
    </ul>","3","","","","","","",""
"","","","","","psychophysics","70","98003","0.0-7.0-56.0","481415","","2103","","","","","","","","","","","1","key","1","16.739126984127022","768","250","1","No"
"","","","","","html-keyboard-response","71","98383","0.0-7.0-57.0","481415","","379","","","","","","","","","","
    <p>How confident are you in your response? Press the corresponding keys from 1 to 5 based on your experience</p>
    <ul id=""confidence-levels"">
      <li id=""conf-1"">1: Not at all confident</li>
      <li id=""conf-2"">2: Slightly confident</li>
      <li id=""conf-3"">3: Somewhat confident</li>
      <li id=""conf-4"">4: Very confident</li>
      <li id=""conf-5"">5: Completely confident</li>
    </ul>","3","","","","","","",""
"","","","","","psychophysics","72","99563","0.0-7.0-58.0","481415","","1174","","","","","","","","","","","2","key","2","16.764676056338047","768","250","1","No"
"","","","","","html-keyboard-response","73","99960","0.0-7.0-59.0","481415","","397","","","","","","","","","","
    <p>How confident are you in your response? Press the corresponding keys from 1 to 5 based on your experience</p>
    <ul id=""confidence-levels"">
      <li id=""conf-1"">1: Not at all confident</li>
      <li id=""conf-2"">2: Slightly confident</li>
      <li id=""conf-3"">3: Somewhat confident</li>
      <li id=""conf-4"">4: Very confident</li>
      <li id=""conf-5"">5: Completely confident</li>
    </ul>","4","","","","","","",""
"","","","","","psychophysics","74","101327","0.0-7.0-60.0","481415","","1363","","","","","","","","","","","2","key","2","16.75076829268286","768","250","1","NO"
"","","","","","html-keyboard-response","75","101642","0.0-7.0-61.0","481415","","315","","","","","","","","","","
    <p>How confident are you in your response? Press the corresponding keys from 1 to 5 based on your experience</p>
    <ul id=""confidence-levels"">
      <li id=""conf-1"">1: Not at all confident</li>
      <li id=""conf-2"">2: Slightly confident</li>
      <li id=""conf-3"">3: Somewhat confident</li>
      <li id=""conf-4"">4: Very confident</li>
      <li id=""conf-5"">5: Completely confident</li>
    </ul>","4","","","","","","",""
"","","","","","psychophysics","76","102968","0.0-7.0-62.0","481415","","1324","","","","","","","","","","","2","key","2","16.6585822784809","768","250","0","NO"
"","","","","","html-keyboard-response","77","103274","0.0-7.0-63.0","481415","","305","","","","","","","","","","
    <p>How confident are you in your response? Press the corresponding keys from 1 to 5 based on your experience</p>
    <ul id=""confidence-levels"">
      <li id=""conf-1"">1: Not at all confident</li>
      <li id=""conf-2"">2: Slightly confident</li>
      <li id=""conf-3"">3: Somewhat confident</li>
      <li id=""conf-4"">4: Very confident</li>
      <li id=""conf-5"">5: Completely confident</li>
    </ul>","4","","","","","","",""
"","","","","","psychophysics","78","104504","0.0-7.0-64.0","481415","","1226","","","","","","","","","","","1","key","1","17.51524285714279","768","250","1","No"
"","","","","","html-keyboard-response","79","104852","0.0-7.0-65.0","481415","","347","","","","","","","","","","
    <p>How confident are you in your response? Press the corresponding keys from 1 to 5 based on your experience</p>
    <ul id=""confidence-levels"">
      <li id=""conf-1"">1: Not at all confident</li>
      <li id=""conf-2"">2: Slightly confident</li>
      <li id=""conf-3"">3: Somewhat confident</li>
      <li id=""conf-4"">4: Very confident</li>
      <li id=""conf-5"">5: Completely confident</li>
    </ul>","3","","","","","","",""
"","","","","","psychophysics","80","105976","0.0-7.0-66.0","481415","","1117","","","","","","","","","","","1","key","1","16.542176470588267","768","250","1","NO"
"","","","","","html-keyboard-response","81","106294","0.0-7.0-67.0","481415","","318","","","","","","","","","","
    <p>How confident are you in your response? Press the corresponding keys from 1 to 5 based on your experience</p>
    <ul id=""confidence-levels"">
      <li id=""conf-1"">1: Not at all confident</li>
      <li id=""conf-2"">2: Slightly confident</li>
      <li id=""conf-3"">3: Somewhat confident</li>
      <li id=""conf-4"">4: Very confident</li>
      <li id=""conf-5"">5: Completely confident</li>
    </ul>","3","","","","","","",""
"","","","","","psychophysics","82","107360","0.0-7.0-68.0","481415","","1064","","","","","","","","","","","1","key","1","16.660406249999824","768","250","1","NO"
"","","","","","html-keyboard-response","83","107730","0.0-7.0-69.0","481415","","368","","","","","","","","","","
    <p>How confident are you in your response? Press the corresponding keys from 1 to 5 based on your experience</p>
    <ul id=""confidence-levels"">
      <li id=""conf-1"">1: Not at all confident</li>
      <li id=""conf-2"">2: Slightly confident</li>
      <li id=""conf-3"">3: Somewhat confident</li>
      <li id=""conf-4"">4: Very confident</li>
      <li id=""conf-5"">5: Completely confident</li>
    </ul>","3","","","","","","",""
"","","","","","psychophysics","84","108985","0.0-7.0-70.0","481415","","1246","","","","","","","","","","","2","key","2","16.765320000000067","768","250","1","YES"
"","","","","","html-keyboard-response","85","109473","0.0-7.0-71.0","481415","","488","","","","","","","","","","
    <p>How confident are you in your response? Press the corresponding keys from 1 to 5 based on your experience</p>
    <ul id=""confidence-levels"">
      <li id=""conf-1"">1: Not at all confident</li>
      <li id=""conf-2"">2: Slightly confident</li>
      <li id=""conf-3"">3: Somewhat confident</li>
      <li id=""conf-4"">4: Very confident</li>
      <li id=""conf-5"">5: Completely confident</li>
    </ul>","4","","","","","","",""
"","","","","","psychophysics","86","111542","0.0-7.0-72.0","481415","","2064","","","","","","","","","","","1","key","1","16.69194354838715","768","250","1","No"
"","","","","","html-keyboard-response","87","111869","0.0-7.0-73.0","481415","","327","","","","","","","","","","
    <p>How confident are you in your response? Press the corresponding keys from 1 to 5 based on your experience</p>
    <ul id=""confidence-levels"">
      <li id=""conf-1"">1: Not at all confident</li>
      <li id=""conf-2"">2: Slightly confident</li>
      <li id=""conf-3"">3: Somewhat confident</li>
      <li id=""conf-4"">4: Very confident</li>
      <li id=""conf-5"">5: Completely confident</li>
    </ul>","3","","","","","","",""
"","","","","","psychophysics","88","113104","0.0-7.0-74.0","481415","","1233","","","","","","","","","","","0","key","0","16.774824324324317","768","250","0","NO"
"","","","","","html-keyboard-response","89","113393","0.0-7.0-75.0","481415","","288","","","","","","","","","","
    <p>How confident are you in your response? Press the corresponding keys from 1 to 5 based on your experience</p>
    <ul id=""confidence-levels"">
      <li id=""conf-1"">1: Not at all confident</li>
      <li id=""conf-2"">2: Slightly confident</li>
      <li id=""conf-3"">3: Somewhat confident</li>
      <li id=""conf-4"">4: Very confident</li>
      <li id=""conf-5"">5: Completely confident</li>
    </ul>","3","","","","","","",""
"","","","","","psychophysics","90","114587","0.0-7.0-76.0","481415","","1188","","","","","","","","","","","2","key","2","16.563902777777912","768","250","1","YES"
"","","","","","html-keyboard-response","91","114920","0.0-7.0-77.0","481415","","332","","","","","","","","","","
    <p>How confident are you in your response? Press the corresponding keys from 1 to 5 based on your experience</p>
    <ul id=""confidence-levels"">
      <li id=""conf-1"">1: Not at all confident</li>
      <li id=""conf-2"">2: Slightly confident</li>
      <li id=""conf-3"">3: Somewhat confident</li>
      <li id=""conf-4"">4: Very confident</li>
      <li id=""conf-5"">5: Completely confident</li>
    </ul>","3","","","","","","",""
"","","","","","psychophysics","92","116081","0.0-7.0-78.0","481415","","1159","","","","","","","","","","","1","key","1","16.788956521739262","768","250","1","NO"
"","","","","","html-keyboard-response","93","116445","0.0-7.0-79.0","481415","","364","","","","","","","","","","
    <p>How confident are you in your response? Press the corresponding keys from 1 to 5 based on your experience</p>
    <ul id=""confidence-levels"">
      <li id=""conf-1"">1: Not at all confident</li>
      <li id=""conf-2"">2: Slightly confident</li>
      <li id=""conf-3"">3: Somewhat confident</li>
      <li id=""conf-4"">4: Very confident</li>
      <li id=""conf-5"">5: Completely confident</li>
    </ul>","2","","","","","","",""
"","","","","","html-keyboard-response","94","117539","0.0-8.0","481415","","1092","","","","","","","","","","Your average response time is  1101.737 ms You are doing great"," ","","","","","","",""
"","","","","","html-button-response","95","179958","0.0-9.0","481415","","62417","","","","","","","","","","<p>You have successfully completed one block of the experiment. The next part of the experiment can be started in <span id=""clock"">1:00</span> <br>You can take a break for a minute or more if you like and Press continue when you are ready","0","","","","","","",""
"","","","","","psychophysics","96","183898","0.0-10.0-0.0","481415","","3932","","","","","","","","","","","1","key","1","16.63648523206755","768","250","2","NO"
"","","","","","html-keyboard-response","97","185256","0.0-10.0-1.0","481415","","1356","","","","","","","","","","
    <p>How confident are you in your response? Press the corresponding keys from 1 to 5 based on your experience</p>
    <ul id=""confidence-levels"">
      <li id=""conf-1"">1: Not at all confident</li>
      <li id=""conf-2"">2: Slightly confident</li>
      <li id=""conf-3"">3: Somewhat confident</li>
      <li id=""conf-4"">4: Very confident</li>
      <li id=""conf-5"">5: Completely confident</li>
    </ul>","1","","","","","","",""
"","","","","","psychophysics","98","186585","0.0-10.0-2.0","481415","","1324","","","","","","","","","","","2","key","2","16.654937499999868","768","250","1","YES"
"","","","","","html-keyboard-response","99","187077","0.0-10.0-3.0","481415","","492","","","","","","","","","","
    <p>How confident are you in your response? Press the corresponding keys from 1 to 5 based on your experience</p>
    <ul id=""confidence-levels"">
      <li id=""conf-1"">1: Not at all confident</li>
      <li id=""conf-2"">2: Slightly confident</li>
      <li id=""conf-3"">3: Somewhat confident</li>
      <li id=""conf-4"">4: Very confident</li>
      <li id=""conf-5"">5: Completely confident</li>
    </ul>","1","","","","","","",""
"","","","","","psychophysics","100","190723","0.0-10.0-4.0","481415","","3642","","","","","","","","","","","1","key","1","16.67939449541288","768","250","2","YES"
"","","","","","html-keyboard-response","101","192073","0.0-10.0-5.0","481415","","1350","","","","","","","","","","
    <p>How confident are you in your response? Press the corresponding keys from 1 to 5 based on your experience</p>
    <ul id=""confidence-levels"">
      <li id=""conf-1"">1: Not at all confident</li>
      <li id=""conf-2"">2: Slightly confident</li>
      <li id=""conf-3"">3: Somewhat confident</li>
      <li id=""conf-4"">4: Very confident</li>
      <li id=""conf-5"">5: Completely confident</li>
    </ul>","2","","","","","","",""
"","","","","","psychophysics","102","193602","0.0-10.0-6.0","481415","","1523","","","","","","","","","","","1","key","1","16.554836956521562","768","250","2","YES"
"","","","","","html-keyboard-response","103","194867","0.0-10.0-7.0","481415","","1264","","","","","","","","","","
    <p>How confident are you in your response? Press the corresponding keys from 1 to 5 based on your experience</p>
    <ul id=""confidence-levels"">
      <li id=""conf-1"">1: Not at all confident</li>
      <li id=""conf-2"">2: Slightly confident</li>
      <li id=""conf-3"">3: Somewhat confident</li>
      <li id=""conf-4"">4: Very confident</li>
      <li id=""conf-5"">5: Completely confident</li>
    </ul>","3","","","","","","",""
"","","","","","psychophysics","104","196222","0.0-10.0-8.0","481415","","1349","","","","","","","","","","","2","key","2","16.633790123456784","768","250","1","YES"
"","","","","","html-keyboard-response","105","196700","0.0-10.0-9.0","481415","","477","","","","","","","","","","
    <p>How confident are you in your response? Press the corresponding keys from 1 to 5 based on your experience</p>
    <ul id=""confidence-levels"">
      <li id=""conf-1"">1: Not at all confident</li>
      <li id=""conf-2"">2: Slightly confident</li>
      <li id=""conf-3"">3: Somewhat confident</li>
      <li id=""conf-4"">4: Very confident</li>
      <li id=""conf-5"">5: Completely confident</li>
    </ul>","4","","","","","","",""
"","","","","","psychophysics","106","197748","0.0-10.0-10.0","481415","","1044","","","","","","","","","","","2","key","2","16.730396825397047","768","250","2","NO"
"","","","","","html-keyboard-response","107","198093","0.0-10.0-11.0","481415","","344","","","","","","","","","","
    <p>How confident are you in your response? Press the corresponding keys from 1 to 5 based on your experience</p>
    <ul id=""confidence-levels"">
      <li id=""conf-1"">1: Not at all confident</li>
      <li id=""conf-2"">2: Slightly confident</li>
      <li id=""conf-3"">3: Somewhat confident</li>
      <li id=""conf-4"">4: Very confident</li>
      <li id=""conf-5"">5: Completely confident</li>
    </ul>","4","","","","","","",""
"","","","","","psychophysics","108","199076","0.0-10.0-12.0","481415","","981","","","","","","","","","","","2","key","2","16.810559322033967","768","250","2","NO"
"","","","","","html-keyboard-response","109","199405","0.0-10.0-13.0","481415","","328","","","","","","","","","","
    <p>How confident are you in your response? Press the corresponding keys from 1 to 5 based on your experience</p>
    <ul id=""confidence-levels"">
      <li id=""conf-1"">1: Not at all confident</li>
      <li id=""conf-2"">2: Slightly confident</li>
      <li id=""conf-3"">3: Somewhat confident</li>
      <li id=""conf-4"">4: Very confident</li>
      <li id=""conf-5"">5: Completely confident</li>
    </ul>","4","","","","","","",""
"","","","","","psychophysics","110","200350","0.0-10.0-14.0","481415","","940","","","","","","","","","","","2","key","2","16.519561403508607","768","250","2","NO"
"","","","","","html-keyboard-response","111","200740","0.0-10.0-15.0","481415","","389","","","","","","","","","","
    <p>How confident are you in your response? Press the corresponding keys from 1 to 5 based on your experience</p>
    <ul id=""confidence-levels"">
      <li id=""conf-1"">1: Not at all confident</li>
      <li id=""conf-2"">2: Slightly confident</li>
      <li id=""conf-3"">3: Somewhat confident</li>
      <li id=""conf-4"">4: Very confident</li>
      <li id=""conf-5"">5: Completely confident</li>
    </ul>","4","","","","","","",""
"","","","","","psychophysics","112","201659","0.0-10.0-16.0","481415","","917","","","","","","","","","","","2","key","2","16.787218181818027","768","250","2","NO"
"","","","","","html-keyboard-response","113","201974","0.0-10.0-17.0","481415","","313","","","","","","","","","","
    <p>How confident are you in your response? Press the corresponding keys from 1 to 5 based on your experience</p>
    <ul id=""confidence-levels"">
      <li id=""conf-1"">1: Not at all confident</li>
      <li id=""conf-2"">2: Slightly confident</li>
      <li id=""conf-3"">3: Somewhat confident</li>
      <li id=""conf-4"">4: Very confident</li>
      <li id=""conf-5"">5: Completely confident</li>
    </ul>","4","","","","","","",""
"","","","","","psychophysics","114","202957","0.0-10.0-18.0","481415","","976","","","","","","","","","","","2","key","2","16.81283050847498","768","250","2","NO"
"","","","","","html-keyboard-response","115","203311","0.0-10.0-19.0","481415","","353","","","","","","","","","","
    <p>How confident are you in your response? Press the corresponding keys from 1 to 5 based on your experience</p>
    <ul id=""confidence-levels"">
      <li id=""conf-1"">1: Not at all confident</li>
      <li id=""conf-2"">2: Slightly confident</li>
      <li id=""conf-3"">3: Somewhat confident</li>
      <li id=""conf-4"">4: Very confident</li>
      <li id=""conf-5"">5: Completely confident</li>
    </ul>","4","","","","","","",""
"","","","","","psychophysics","116","205153","0.0-10.0-20.0","481415","","1836","","","","","","","","","","","2","key","2","16.73757272727274","768","250","1","YES"
"","","","","","html-keyboard-response","117","205490","0.0-10.0-21.0","481415","","336","","","","","","","","","","
    <p>How confident are you in your response? Press the corresponding keys from 1 to 5 based on your experience</p>
    <ul id=""confidence-levels"">
      <li id=""conf-1"">1: Not at all confident</li>
      <li id=""conf-2"">2: Slightly confident</li>
      <li id=""conf-3"">3: Somewhat confident</li>
      <li id=""conf-4"">4: Very confident</li>
      <li id=""conf-5"">5: Completely confident</li>
    </ul>","4","","","","","","",""
"","","","","","psychophysics","118","206779","0.0-10.0-22.0","481415","","1285","","","","","","","","","","","2","key","2","16.77084415584429","768","250","1","YES"
"","","","","","html-keyboard-response","119","207105","0.0-10.0-23.0","481415","","325","","","","","","","","","","
    <p>How confident are you in your response? Press the corresponding keys from 1 to 5 based on your experience</p>
    <ul id=""confidence-levels"">
      <li id=""conf-1"">1: Not at all confident</li>
      <li id=""conf-2"">2: Slightly confident</li>
      <li id=""conf-3"">3: Somewhat confident</li>
      <li id=""conf-4"">4: Very confident</li>
      <li id=""conf-5"">5: Completely confident</li>
    </ul>","4","","","","","","",""
"","","","","","psychophysics","120","208078","0.0-10.0-24.0","481415","","971","","","","","","","","","","","2","key","2","16.810603448276105","768","250","1","YES"
"","","","","","html-keyboard-response","121","208396","0.0-10.0-25.0","481415","","317","","","","","","","","","","
    <p>How confident are you in your response? Press the corresponding keys from 1 to 5 based on your experience</p>
    <ul id=""confidence-levels"">
      <li id=""conf-1"">1: Not at all confident</li>
      <li id=""conf-2"">2: Slightly confident</li>
      <li id=""conf-3"">3: Somewhat confident</li>
      <li id=""conf-4"">4: Very confident</li>
      <li id=""conf-5"">5: Completely confident</li>
    </ul>","4","","","","","","",""
"","","","","","psychophysics","122","209322","0.0-10.0-26.0","481415","","922","","","","","","","","","","","2","key","2","16.512982142856863","768","250","2","NO"
"","","","","","html-keyboard-response","123","209620","0.0-10.0-27.0","481415","","297","","","","","","","","","","
    <p>How confident are you in your response? Press the corresponding keys from 1 to 5 based on your experience</p>
    <ul id=""confidence-levels"">
      <li id=""conf-1"">1: Not at all confident</li>
      <li id=""conf-2"">2: Slightly confident</li>
      <li id=""conf-3"">3: Somewhat confident</li>
      <li id=""conf-4"">4: Very confident</li>
      <li id=""conf-5"">5: Completely confident</li>
    </ul>","4","","","","","","",""
"","","","","","psychophysics","124","210541","0.0-10.0-28.0","481415","","916","","","","","","","","","","","2","key","2","16.844672727272634","768","250","2","NO"
"","","","","","html-keyboard-response","125","210830","0.0-10.0-29.0","481415","","288","","","","","","","","","","
    <p>How confident are you in your response? Press the corresponding keys from 1 to 5 based on your experience</p>
    <ul id=""confidence-levels"">
      <li id=""conf-1"">1: Not at all confident</li>
      <li id=""conf-2"">2: Slightly confident</li>
      <li id=""conf-3"">3: Somewhat confident</li>
      <li id=""conf-4"">4: Very confident</li>
      <li id=""conf-5"">5: Completely confident</li>
    </ul>","4","","","","","","",""
"","","","","","psychophysics","126","211800","0.0-10.0-30.0","481415","","966","","","","","","","","","","","2","key","2","16.54117241379271","768","250","2","YES"
"","","","","","html-keyboard-response","127","212939","0.0-10.0-31.0","481415","","1138","","","","","","","","","","
    <p>How confident are you in your response? Press the corresponding keys from 1 to 5 based on your experience</p>
    <ul id=""confidence-levels"">
      <li id=""conf-1"">1: Not at all confident</li>
      <li id=""conf-2"">2: Slightly confident</li>
      <li id=""conf-3"">3: Somewhat confident</li>
      <li id=""conf-4"">4: Very confident</li>
      <li id=""conf-5"">5: Completely confident</li>
    </ul>","4","","","","","","",""
"","","","","","psychophysics","128","214889","0.0-10.0-32.0","481415","","1946","","","","","","","","","","","2","key","2","16.672846153846137","768","250","2","NO"
"","","","","","html-keyboard-response","129","215527","0.0-10.0-33.0","481415","","637","","","","","","","","","","
    <p>How confident are you in your response? Press the corresponding keys from 1 to 5 based on your experience</p>
    <ul id=""confidence-levels"">
      <li id=""conf-1"">1: Not at all confident</li>
      <li id=""conf-2"">2: Slightly confident</li>
      <li id=""conf-3"">3: Somewhat confident</li>
      <li id=""conf-4"">4: Very confident</li>
      <li id=""conf-5"">5: Completely confident</li>
    </ul>","5","","","","","","",""
"","","","","","psychophysics","130","216839","0.0-10.0-34.0","481415","","1311","","","","","","","","","","","2","key","2","16.654493670886282","768","250","2","NO"
"","","","","","html-keyboard-response","131","217334","0.0-10.0-35.0","481415","","494","","","","","","","","","","
    <p>How confident are you in your response? Press the corresponding keys from 1 to 5 based on your experience</p>
    <ul id=""confidence-levels"">
      <li id=""conf-1"">1: Not at all confident</li>
      <li id=""conf-2"">2: Slightly confident</li>
      <li id=""conf-3"">3: Somewhat confident</li>
      <li id=""conf-4"">4: Very confident</li>
      <li id=""conf-5"">5: Completely confident</li>
    </ul>","5","","","","","","",""
"","","","","","psychophysics","132","218694","0.0-10.0-36.0","481415","","1356","","","","","","","","","","","2","key","2","16.70414814814842","768","250","2","NO"
"","","","","","html-keyboard-response","133","219109","0.0-10.0-37.0","481415","","414","","","","","","","","","","
    <p>How confident are you in your response? Press the corresponding keys from 1 to 5 based on your experience</p>
    <ul id=""confidence-levels"">
      <li id=""conf-1"">1: Not at all confident</li>
      <li id=""conf-2"">2: Slightly confident</li>
      <li id=""conf-3"">3: Somewhat confident</li>
      <li id=""conf-4"">4: Very confident</li>
      <li id=""conf-5"">5: Completely confident</li>
    </ul>","4","","","","","","",""
"","","","","","psychophysics","134","220599","0.0-10.0-38.0","481415","","1485","","","","","","","","","","","1","key","1","16.729797752808878","768","250","2","YES"
"","","","","","html-keyboard-response","135","220948","0.0-10.0-39.0","481415","","349","","","","","","","","","","
    <p>How confident are you in your response? Press the corresponding keys from 1 to 5 based on your experience</p>
    <ul id=""confidence-levels"">
      <li id=""conf-1"">1: Not at all confident</li>
      <li id=""conf-2"">2: Slightly confident</li>
      <li id=""conf-3"">3: Somewhat confident</li>
      <li id=""conf-4"">4: Very confident</li>
      <li id=""conf-5"">5: Completely confident</li>
    </ul>","4","","","","","","",""
"","","","","","psychophysics","136","222571","0.0-10.0-40.0","481415","","1618","","","","","","","","","","","1","key","1","16.57430612244875","768","250","1","YES"
"","","","","","html-keyboard-response","137","222913","0.0-10.0-41.0","481415","","342","","","","","","","","","","
    <p>How confident are you in your response? Press the corresponding keys from 1 to 5 based on your experience</p>
    <ul id=""confidence-levels"">
      <li id=""conf-1"">1: Not at all confident</li>
      <li id=""conf-2"">2: Slightly confident</li>
      <li id=""conf-3"">3: Somewhat confident</li>
      <li id=""conf-4"">4: Very confident</li>
      <li id=""conf-5"">5: Completely confident</li>
    </ul>","4","","","","","","",""
"","","","","","psychophysics","138","224196","0.0-10.0-42.0","481415","","1278","","","","","","","","","","","1","key","1","16.55705194805171","768","250","1","YES"
"","","","","","html-keyboard-response","139","224504","0.0-10.0-43.0","481415","","308","","","","","","","","","","
    <p>How confident are you in your response? Press the corresponding keys from 1 to 5 based on your experience</p>
    <ul id=""confidence-levels"">
      <li id=""conf-1"">1: Not at all confident</li>
      <li id=""conf-2"">2: Slightly confident</li>
      <li id=""conf-3"">3: Somewhat confident</li>
      <li id=""conf-4"">4: Very confident</li>
      <li id=""conf-5"">5: Completely confident</li>
    </ul>","4","","","","","","",""
"","","","","","psychophysics","140","225826","0.0-10.0-44.0","481415","","1317","","","","","","","","","","","1","key","1","16.783202531645472","768","250","2","YES"
"","","","","","html-keyboard-response","141","226171","0.0-10.0-45.0","481415","","345","","","","","","","","","","
    <p>How confident are you in your response? Press the corresponding keys from 1 to 5 based on your experience</p>
    <ul id=""confidence-levels"">
      <li id=""conf-1"">1: Not at all confident</li>
      <li id=""conf-2"">2: Slightly confident</li>
      <li id=""conf-3"">3: Somewhat confident</li>
      <li id=""conf-4"">4: Very confident</li>
      <li id=""conf-5"">5: Completely confident</li>
    </ul>","3","","","","","","",""
"","","","","","psychophysics","142","227476","0.0-10.0-46.0","481415","","1300","","","","","","","","","","","2","key","2","16.771692307692437","768","250","2","NO"
"","","","","","html-keyboard-response","143","228120","0.0-10.0-47.0","481415","","644","","","","","","","","","","
    <p>How confident are you in your response? Press the corresponding keys from 1 to 5 based on your experience</p>
    <ul id=""confidence-levels"">
      <li id=""conf-1"">1: Not at all confident</li>
      <li id=""conf-2"">2: Slightly confident</li>
      <li id=""conf-3"">3: Somewhat confident</li>
      <li id=""conf-4"">4: Very confident</li>
      <li id=""conf-5"">5: Completely confident</li>
    </ul>","5","","","","","","",""
"","","","","","psychophysics","144","229660","0.0-10.0-48.0","481415","","1535","","","","","","","","","","","1","key","1","16.653456521738995","768","250","2","YES"
"","","","","","html-keyboard-response","145","230078","0.0-10.0-49.0","481415","","417","","","","","","","","","","
    <p>How confident are you in your response? Press the corresponding keys from 1 to 5 based on your experience</p>
    <ul id=""confidence-levels"">
      <li id=""conf-1"">1: Not at all confident</li>
      <li id=""conf-2"">2: Slightly confident</li>
      <li id=""conf-3"">3: Somewhat confident</li>
      <li id=""conf-4"">4: Very confident</li>
      <li id=""conf-5"">5: Completely confident</li>
    </ul>","4","","","","","","",""
"","","","","","psychophysics","146","231298","0.0-10.0-50.0","481415","","1216","","","","","","","","","","","2","key","2","16.510702702702524","768","250","1","YES"
"","","","","","html-keyboard-response","147","231651","0.0-10.0-51.0","481415","","351","","","","","","","","","","
    <p>How confident are you in your response? Press the corresponding keys from 1 to 5 based on your experience</p>
    <ul id=""confidence-levels"">
      <li id=""conf-1"">1: Not at all confident</li>
      <li id=""conf-2"">2: Slightly confident</li>
      <li id=""conf-3"">3: Somewhat confident</li>
      <li id=""conf-4"">4: Very confident</li>
      <li id=""conf-5"">5: Completely confident</li>
    </ul>","4","","","","","","",""
"","","","","","psychophysics","148","233807","0.0-10.0-52.0","481415","","2151","","","","","","","","","","","2","key","2","16.72762015503863","768","250","1","YES"
"","","","","","html-keyboard-response","149","234119","0.0-10.0-53.0","481415","","311","","","","","","","","","","
    <p>How confident are you in your response? Press the corresponding keys from 1 to 5 based on your experience</p>
    <ul id=""confidence-levels"">
      <li id=""conf-1"">1: Not at all confident</li>
      <li id=""conf-2"">2: Slightly confident</li>
      <li id=""conf-3"">3: Somewhat confident</li>
      <li id=""conf-4"">4: Very confident</li>
      <li id=""conf-5"">5: Completely confident</li>
    </ul>","4","","","","","","",""
"","","","","","psychophysics","150","235392","0.0-10.0-54.0","481415","","1268","","","","","","","","","","","2","key","2","16.784315789473784","768","250","1","YES"
"","","","","","html-keyboard-response","151","235749","0.0-10.0-55.0","481415","","356","","","","","","","","","","
    <p>How confident are you in your response? Press the corresponding keys from 1 to 5 based on your experience</p>
    <ul id=""confidence-levels"">
      <li id=""conf-1"">1: Not at all confident</li>
      <li id=""conf-2"">2: Slightly confident</li>
      <li id=""conf-3"">3: Somewhat confident</li>
      <li id=""conf-4"">4: Very confident</li>
      <li id=""conf-5"">5: Completely confident</li>
    </ul>","4","","","","","","",""
"","","","","","psychophysics","152","236948","0.0-10.0-56.0","481415","","1195","","","","","","","","","","","2","key","2","16.76987500000016","768","250","1","YES"
"","","","","","html-keyboard-response","153","237227","0.0-10.0-57.0","481415","","278","","","","","","","","","","
    <p>How confident are you in your response? Press the corresponding keys from 1 to 5 based on your experience</p>
    <ul id=""confidence-levels"">
      <li id=""conf-1"">1: Not at all confident</li>
      <li id=""conf-2"">2: Slightly confident</li>
      <li id=""conf-3"">3: Somewhat confident</li>
      <li id=""conf-4"">4: Very confident</li>
      <li id=""conf-5"">5: Completely confident</li>
    </ul>","4","","","","","","",""
"","","","","","psychophysics","154","238570","0.0-10.0-58.0","481415","","1339","","","","","","","","","","","1","key","1","16.579518518518416","768","250","2","YES"
"","","","","","html-keyboard-response","155","238872","0.0-10.0-59.0","481415","","301","","","","","","","","","","
    <p>How confident are you in your response? Press the corresponding keys from 1 to 5 based on your experience</p>
    <ul id=""confidence-levels"">
      <li id=""conf-1"">1: Not at all confident</li>
      <li id=""conf-2"">2: Slightly confident</li>
      <li id=""conf-3"">3: Somewhat confident</li>
      <li id=""conf-4"">4: Very confident</li>
      <li id=""conf-5"">5: Completely confident</li>
    </ul>","4","","","","","","",""
"","","","","","psychophysics","156","240031","0.0-10.0-60.0","481415","","1155","","","","","","","","","","","1","key","1","16.56178571428588","768","250","2","YES"
"","","","","","html-keyboard-response","157","240350","0.0-10.0-61.0","481415","","318","","","","","","","","","","
    <p>How confident are you in your response? Press the corresponding keys from 1 to 5 based on your experience</p>
    <ul id=""confidence-levels"">
      <li id=""conf-1"">1: Not at all confident</li>
      <li id=""conf-2"">2: Slightly confident</li>
      <li id=""conf-3"">3: Somewhat confident</li>
      <li id=""conf-4"">4: Very confident</li>
      <li id=""conf-5"">5: Completely confident</li>
    </ul>","4","","","","","","",""
"","","","","","psychophysics","158","241678","0.0-10.0-62.0","481415","","1324","","","","","","","","","","","2","key","2","16.778299999999945","768","250","1","YES"
"","","","","","html-keyboard-response","159","241965","0.0-10.0-63.0","481415","","286","","","","","","","","","","
    <p>How confident are you in your response? Press the corresponding keys from 1 to 5 based on your experience</p>
    <ul id=""confidence-levels"">
      <li id=""conf-1"">1: Not at all confident</li>
      <li id=""conf-2"">2: Slightly confident</li>
      <li id=""conf-3"">3: Somewhat confident</li>
      <li id=""conf-4"">4: Very confident</li>
      <li id=""conf-5"">5: Completely confident</li>
    </ul>","4","","","","","","",""
"","","","","","psychophysics","160","243305","0.0-10.0-64.0","481415","","1335","","","","","","","","","","","2","key","2","16.79310000000005","768","250","2","NO"
"","","","","","html-keyboard-response","161","243598","0.0-10.0-65.0","481415","","293","","","","","","","","","","
    <p>How confident are you in your response? Press the corresponding keys from 1 to 5 based on your experience</p>
    <ul id=""confidence-levels"">
      <li id=""conf-1"">1: Not at all confident</li>
      <li id=""conf-2"">2: Slightly confident</li>
      <li id=""conf-3"">3: Somewhat confident</li>
      <li id=""conf-4"">4: Very confident</li>
      <li id=""conf-5"">5: Completely confident</li>
    </ul>","4","","","","","","",""
"","","","","","psychophysics","162","244759","0.0-10.0-66.0","481415","","1156","","","","","","","","","","","1","key","1","16.80800000000011","768","250","2","YES"
"","","","","","html-keyboard-response","163","245075","0.0-10.0-67.0","481415","","316","","","","","","","","","","
    <p>How confident are you in your response? Press the corresponding keys from 1 to 5 based on your experience</p>
    <ul id=""confidence-levels"">
      <li id=""conf-1"">1: Not at all confident</li>
      <li id=""conf-2"">2: Slightly confident</li>
      <li id=""conf-3"">3: Somewhat confident</li>
      <li id=""conf-4"">4: Very confident</li>
      <li id=""conf-5"">5: Completely confident</li>
    </ul>","4","","","","","","",""
"","","","","","psychophysics","164","246227","0.0-10.0-68.0","481415","","1150","","","","","","","","","","","1","key","1","16.79353623188386","768","250","2","YES"
"","","","","","html-keyboard-response","165","246543","0.0-10.0-69.0","481415","","314","","","","","","","","","","
    <p>How confident are you in your response? Press the corresponding keys from 1 to 5 based on your experience</p>
    <ul id=""confidence-levels"">
      <li id=""conf-1"">1: Not at all confident</li>
      <li id=""conf-2"">2: Slightly confident</li>
      <li id=""conf-3"">3: Somewhat confident</li>
      <li id=""conf-4"">4: Very confident</li>
      <li id=""conf-5"">5: Completely confident</li>
    </ul>","4","","","","","","",""
"","","","","","psychophysics","166","247827","0.0-10.0-70.0","481415","","1280","","","","","","","","","","","2","key","2","16.77987012986998","768","250","1","YES"
"","","","","","html-keyboard-response","167","248407","0.0-10.0-71.0","481415","","579","","","","","","","","","","
    <p>How confident are you in your response? Press the corresponding keys from 1 to 5 based on your experience</p>
    <ul id=""confidence-levels"">
      <li id=""conf-1"">1: Not at all confident</li>
      <li id=""conf-2"">2: Slightly confident</li>
      <li id=""conf-3"">3: Somewhat confident</li>
      <li id=""conf-4"">4: Very confident</li>
      <li id=""conf-5"">5: Completely confident</li>
    </ul>","4","","","","","","",""
"","","","","","psychophysics","168","249559","0.0-10.0-72.0","481415","","1148","","","","","","","","","","","1","key","1","16.67110144927553","768","250","2","YES"
"","","","","","html-keyboard-response","169","249913","0.0-10.0-73.0","481415","","352","","","","","","","","","","
    <p>How confident are you in your response? Press the corresponding keys from 1 to 5 based on your experience</p>
    <ul id=""confidence-levels"">
      <li id=""conf-1"">1: Not at all confident</li>
      <li id=""conf-2"">2: Slightly confident</li>
      <li id=""conf-3"">3: Somewhat confident</li>
      <li id=""conf-4"">4: Very confident</li>
      <li id=""conf-5"">5: Completely confident</li>
    </ul>","4","","","","","","",""
"","","","","","psychophysics","170","251007","0.0-10.0-74.0","481415","","1090","","","","","","","","","","","1","key","1","16.788000000000018","768","250","2","YES"
"","","","","","html-keyboard-response","171","251299","0.0-10.0-75.0","481415","","291","","","","","","","","","","
    <p>How confident are you in your response? Press the corresponding keys from 1 to 5 based on your experience</p>
    <ul id=""confidence-levels"">
      <li id=""conf-1"">1: Not at all confident</li>
      <li id=""conf-2"">2: Slightly confident</li>
      <li id=""conf-3"">3: Somewhat confident</li>
      <li id=""conf-4"">4: Very confident</li>
      <li id=""conf-5"">5: Completely confident</li>
    </ul>","4","","","","","","",""
"","","","","","psychophysics","172","252305","0.0-10.0-76.0","481415","","1001","","","","","","","","","","","1","key","1","16.539616666666795","768","250","2","YES"
"","","","","","html-keyboard-response","173","252640","0.0-10.0-77.0","481415","","335","","","","","","","","","","
    <p>How confident are you in your response? Press the corresponding keys from 1 to 5 based on your experience</p>
    <ul id=""confidence-levels"">
      <li id=""conf-1"">1: Not at all confident</li>
      <li id=""conf-2"">2: Slightly confident</li>
      <li id=""conf-3"">3: Somewhat confident</li>
      <li id=""conf-4"">4: Very confident</li>
      <li id=""conf-5"">5: Completely confident</li>
    </ul>","4","","","","","","",""
"","","","","","html-keyboard-response","174","253907","0.0-11.0","481415","","1265","","","","","","","","","","Your average response time is 996.667 ms You are doing great"," ","","","","","","",""
"","","","","","html-button-response","175","315133","0.0-12.0","481415","","61225","","","","","","","","","","<p>You have successfully completed one block of the experiment. The next part of the experiment can be started in <span id=""clock"">1:00</span> <br>You can take a break for a minute or more if you like and Press continue when you are ready","0","","","","","","",""
"","","","","","psychophysics","176","316764","0.0-13.0-0.0","481415","","1627","","","","","","","","","","","1","key","1","16.60421428571417","768","250","1","25"
"","","","","","html-keyboard-response","177","318089","0.0-13.0-1.0","481415","","1324","","","","","","","","","","
    <p>How confident are you in your response? Press the corresponding keys from 1 to 5 based on your experience</p>
    <ul id=""confidence-levels"">
      <li id=""conf-1"">1: Not at all confident</li>
      <li id=""conf-2"">2: Slightly confident</li>
      <li id=""conf-3"">3: Somewhat confident</li>
      <li id=""conf-4"">4: Very confident</li>
      <li id=""conf-5"">5: Completely confident</li>
    </ul>","4","","","","","","",""
"","","","","","psychophysics","178","320640","0.0-13.0-2.0","481415","","2546","","","","","","","","","","","1","key","1","16.647745098039096","768","250","1","300"
"","","","","","html-keyboard-response","179","320964","0.0-13.0-3.0","481415","","324","","","","","","","","","","
    <p>How confident are you in your response? Press the corresponding keys from 1 to 5 based on your experience</p>
    <ul id=""confidence-levels"">
      <li id=""conf-1"">1: Not at all confident</li>
      <li id=""conf-2"">2: Slightly confident</li>
      <li id=""conf-3"">3: Somewhat confident</li>
      <li id=""conf-4"">4: Very confident</li>
      <li id=""conf-5"">5: Completely confident</li>
    </ul>","4","","","","","","",""
"","","","","","psychophysics","180","322270","0.0-13.0-4.0","481415","","1301","","","","","","","","","","","2","key","2","16.771641025640584","768","250","1","80"
"","","","","","html-keyboard-response","181","322713","0.0-13.0-5.0","481415","","443","","","","","","","","","","
    <p>How confident are you in your response? Press the corresponding keys from 1 to 5 based on your experience</p>
    <ul id=""confidence-levels"">
      <li id=""conf-1"">1: Not at all confident</li>
      <li id=""conf-2"">2: Slightly confident</li>
      <li id=""conf-3"">3: Somewhat confident</li>
      <li id=""conf-4"">4: Very confident</li>
      <li id=""conf-5"">5: Completely confident</li>
    </ul>","4","","","","","","",""
"","","","","","psychophysics","182","324052","0.0-13.0-6.0","481415","","1334","","","","","","","","","","","2","key","2","16.520444444444657","768","250","1","200"
"","","","","","html-keyboard-response","183","324361","0.0-13.0-7.0","481415","","308","","","","","","","","","","
    <p>How confident are you in your response? Press the corresponding keys from 1 to 5 based on your experience</p>
    <ul id=""confidence-levels"">
      <li id=""conf-1"">1: Not at all confident</li>
      <li id=""conf-2"">2: Slightly confident</li>
      <li id=""conf-3"">3: Somewhat confident</li>
      <li id=""conf-4"">4: Very confident</li>
      <li id=""conf-5"">5: Completely confident</li>
    </ul>","4","","","","","","",""
"","","","","","psychophysics","184","325443","0.0-13.0-8.0","481415","","1078","","","","","","","","","","","2","key","2","16.55596923076888","768","250","1","50"
"","","","","","html-keyboard-response","185","325706","0.0-13.0-9.0","481415","","262","","","","","","","","","","
    <p>How confident are you in your response? Press the corresponding keys from 1 to 5 based on your experience</p>
    <ul id=""confidence-levels"">
      <li id=""conf-1"">1: Not at all confident</li>
      <li id=""conf-2"">2: Slightly confident</li>
      <li id=""conf-3"">3: Somewhat confident</li>
      <li id=""conf-4"">4: Very confident</li>
      <li id=""conf-5"">5: Completely confident</li>
    </ul>","4","","","","","","",""
"","","","","","psychophysics","186","326869","0.0-13.0-10.0","481415","","1160","","","","","","","","","","","2","key","2","16.57404285714313","768","250","1","200"
"","","","","","html-keyboard-response","187","327209","0.0-13.0-11.0","481415","","339","","","","","","","","","","
    <p>How confident are you in your response? Press the corresponding keys from 1 to 5 based on your experience</p>
    <ul id=""confidence-levels"">
      <li id=""conf-1"">1: Not at all confident</li>
      <li id=""conf-2"">2: Slightly confident</li>
      <li id=""conf-3"">3: Somewhat confident</li>
      <li id=""conf-4"">4: Very confident</li>
      <li id=""conf-5"">5: Completely confident</li>
    </ul>","4","","","","","","",""
"","","","","","psychophysics","188","328373","0.0-13.0-12.0","481415","","1160","","","","","","","","","","","2","key","2","16.53555714285716","768","250","1","50"
"","","","","","html-keyboard-response","189","328652","0.0-13.0-13.0","481415","","278","","","","","","","","","","
    <p>How confident are you in your response? Press the corresponding keys from 1 to 5 based on your experience</p>
    <ul id=""confidence-levels"">
      <li id=""conf-1"">1: Not at all confident</li>
      <li id=""conf-2"">2: Slightly confident</li>
      <li id=""conf-3"">3: Somewhat confident</li>
      <li id=""conf-4"">4: Very confident</li>
      <li id=""conf-5"">5: Completely confident</li>
    </ul>","4","","","","","","",""
"","","","","","psychophysics","190","329831","0.0-13.0-14.0","481415","","1175","","","","","","","","","","","2","key","2","16.809549295774687","768","250","1","25"
"","","","","","html-keyboard-response","191","330086","0.0-13.0-15.0","481415","","254","","","","","","","","","","
    <p>How confident are you in your response? Press the corresponding keys from 1 to 5 based on your experience</p>
    <ul id=""confidence-levels"">
      <li id=""conf-1"">1: Not at all confident</li>
      <li id=""conf-2"">2: Slightly confident</li>
      <li id=""conf-3"">3: Somewhat confident</li>
      <li id=""conf-4"">4: Very confident</li>
      <li id=""conf-5"">5: Completely confident</li>
    </ul>","4","","","","","","",""
"","","","","","psychophysics","192","331247","0.0-13.0-16.0","481415","","1155","","","","","","","","","","","2","key","2","16.578899999999805","768","250","1","80"
"","","","","","html-keyboard-response","193","331913","0.0-13.0-17.0","481415","","665","","","","","","","","","","
    <p>How confident are you in your response? Press the corresponding keys from 1 to 5 based on your experience</p>
    <ul id=""confidence-levels"">
      <li id=""conf-1"">1: Not at all confident</li>
      <li id=""conf-2"">2: Slightly confident</li>
      <li id=""conf-3"">3: Somewhat confident</li>
      <li id=""conf-4"">4: Very confident</li>
      <li id=""conf-5"">5: Completely confident</li>
    </ul>","4","","","","","","",""
"","","","","","psychophysics","194","333209","0.0-13.0-18.0","481415","","1292","","","","","","","","","","","2","key","2","16.643675324674877","768","250","1","150"
"","","","","","html-keyboard-response","195","333725","0.0-13.0-19.0","481415","","515","","","","","","","","","","
    <p>How confident are you in your response? Press the corresponding keys from 1 to 5 based on your experience</p>
    <ul id=""confidence-levels"">
      <li id=""conf-1"">1: Not at all confident</li>
      <li id=""conf-2"">2: Slightly confident</li>
      <li id=""conf-3"">3: Somewhat confident</li>
      <li id=""conf-4"">4: Very confident</li>
      <li id=""conf-5"">5: Completely confident</li>
    </ul>","5","","","","","","",""
"","","","","","psychophysics","196","335166","0.0-13.0-20.0","481415","","1437","","","","","","","","","","","2","key","2","16.497666666666902","768","250","1","300"
"","","","","","html-keyboard-response","197","335767","0.0-13.0-21.0","481415","","600","","","","","","","","","","
    <p>How confident are you in your response? Press the corresponding keys from 1 to 5 based on your experience</p>
    <ul id=""confidence-levels"">
      <li id=""conf-1"">1: Not at all confident</li>
      <li id=""conf-2"">2: Slightly confident</li>
      <li id=""conf-3"">3: Somewhat confident</li>
      <li id=""conf-4"">4: Very confident</li>
      <li id=""conf-5"">5: Completely confident</li>
    </ul>","5","","","","","","",""
"","","","","","psychophysics","198","336929","0.0-13.0-22.0","481415","","1154","","","","","","","","","","","2","key","2","16.67575362318894","768","250","1","150"
"","","","","","html-keyboard-response","199","337501","0.0-13.0-23.0","481415","","571","","","","","","","","","","
    <p>How confident are you in your response? Press the corresponding keys from 1 to 5 based on your experience</p>
    <ul id=""confidence-levels"">
      <li id=""conf-1"">1: Not at all confident</li>
      <li id=""conf-2"">2: Slightly confident</li>
      <li id=""conf-3"">3: Somewhat confident</li>
      <li id=""conf-4"">4: Very confident</li>
      <li id=""conf-5"">5: Completely confident</li>
    </ul>","5","","","","","","",""
"","","","","","psychophysics","200","338681","0.0-13.0-24.0","481415","","1176","","","","","","","","","","","2","key","2","16.67247887323922","768","250","1","200"
"","","","","","html-keyboard-response","201","339159","0.0-13.0-25.0","481415","","477","","","","","","","","","","
    <p>How confident are you in your response? Press the corresponding keys from 1 to 5 based on your experience</p>
    <ul id=""confidence-levels"">
      <li id=""conf-1"">1: Not at all confident</li>
      <li id=""conf-2"">2: Slightly confident</li>
      <li id=""conf-3"">3: Somewhat confident</li>
      <li id=""conf-4"">4: Very confident</li>
      <li id=""conf-5"">5: Completely confident</li>
    </ul>","5","","","","","","",""
"","","","","","psychophysics","202","340630","0.0-13.0-26.0","481415","","1467","","","","","","","","","","","2","key","2","16.705193181817858","768","250","1","25"
"","","","","","html-keyboard-response","203","341088","0.0-13.0-27.0","481415","","457","","","","","","","","","","
    <p>How confident are you in your response? Press the corresponding keys from 1 to 5 based on your experience</p>
    <ul id=""confidence-levels"">
      <li id=""conf-1"">1: Not at all confident</li>
      <li id=""conf-2"">2: Slightly confident</li>
      <li id=""conf-3"">3: Somewhat confident</li>
      <li id=""conf-4"">4: Very confident</li>
      <li id=""conf-5"">5: Completely confident</li>
    </ul>","5","","","","","","",""
"","","","","","psychophysics","204","342414","0.0-13.0-28.0","481415","","1322","","","","","","","","","","","2","key","2","16.51053749999992","768","250","1","100"
"","","","","","html-keyboard-response","205","342907","0.0-13.0-29.0","481415","","492","","","","","","","","","","
    <p>How confident are you in your response? Press the corresponding keys from 1 to 5 based on your experience</p>
    <ul id=""confidence-levels"">
      <li id=""conf-1"">1: Not at all confident</li>
      <li id=""conf-2"">2: Slightly confident</li>
      <li id=""conf-3"">3: Somewhat confident</li>
      <li id=""conf-4"">4: Very confident</li>
      <li id=""conf-5"">5: Completely confident</li>
    </ul>","5","","","","","","",""
"","","","","","psychophysics","206","344385","0.0-13.0-30.0","481415","","1474","","","","","","","","","","","2","key","2","16.51975280898911","768","250","1","150"
"","","","","","html-keyboard-response","207","344617","0.0-13.0-31.0","481415","","231","","","","","","","","","","
    <p>How confident are you in your response? Press the corresponding keys from 1 to 5 based on your experience</p>
    <ul id=""confidence-levels"">
      <li id=""conf-1"">1: Not at all confident</li>
      <li id=""conf-2"">2: Slightly confident</li>
      <li id=""conf-3"">3: Somewhat confident</li>
      <li id=""conf-4"">4: Very confident</li>
      <li id=""conf-5"">5: Completely confident</li>
    </ul>","5","","","","","","",""
"","","","","","psychophysics","208","345771","0.0-13.0-32.0","481415","","1150","","","","","","","","","","","2","key","2","16.5831739130435","768","250","1","200"
"","","","","","html-keyboard-response","209","346180","0.0-13.0-33.0","481415","","409","","","","","","","","","","
    <p>How confident are you in your response? Press the corresponding keys from 1 to 5 based on your experience</p>
    <ul id=""confidence-levels"">
      <li id=""conf-1"">1: Not at all confident</li>
      <li id=""conf-2"">2: Slightly confident</li>
      <li id=""conf-3"">3: Somewhat confident</li>
      <li id=""conf-4"">4: Very confident</li>
      <li id=""conf-5"">5: Completely confident</li>
    </ul>","5","","","","","","",""
"","","","","","psychophysics","210","347245","0.0-13.0-34.0","481415","","1060","","","","","","","","","","","2","key","2","16.76410937499986","768","250","1","50"
"","","","","","html-keyboard-response","211","347506","0.0-13.0-35.0","481415","","261","","","","","","","","","","
    <p>How confident are you in your response? Press the corresponding keys from 1 to 5 based on your experience</p>
    <ul id=""confidence-levels"">
      <li id=""conf-1"">1: Not at all confident</li>
      <li id=""conf-2"">2: Slightly confident</li>
      <li id=""conf-3"">3: Somewhat confident</li>
      <li id=""conf-4"">4: Very confident</li>
      <li id=""conf-5"">5: Completely confident</li>
    </ul>","5","","","","","","",""
"","","","","","psychophysics","212","348587","0.0-13.0-36.0","481415","","1079","","","","","","","","","","","2","key","2","16.835124999999607","768","250","1","100"
"","","","","","html-keyboard-response","213","348900","0.0-13.0-37.0","481415","","312","","","","","","","","","","
    <p>How confident are you in your response? Press the corresponding keys from 1 to 5 based on your experience</p>
    <ul id=""confidence-levels"">
      <li id=""conf-1"">1: Not at all confident</li>
      <li id=""conf-2"">2: Slightly confident</li>
      <li id=""conf-3"">3: Somewhat confident</li>
      <li id=""conf-4"">4: Very confident</li>
      <li id=""conf-5"">5: Completely confident</li>
    </ul>","5","","","","","","",""
"","","","","","psychophysics","214","349984","0.0-13.0-38.0","481415","","1079","","","","","","","","","","","2","key","2","16.53923076923059","768","250","1","25"
"","","","","","html-keyboard-response","215","350425","0.0-13.0-39.0","481415","","441","","","","","","","","","","
    <p>How confident are you in your response? Press the corresponding keys from 1 to 5 based on your experience</p>
    <ul id=""confidence-levels"">
      <li id=""conf-1"">1: Not at all confident</li>
      <li id=""conf-2"">2: Slightly confident</li>
      <li id=""conf-3"">3: Somewhat confident</li>
      <li id=""conf-4"">4: Very confident</li>
      <li id=""conf-5"">5: Completely confident</li>
    </ul>","5","","","","","","",""
"","","","","","psychophysics","216","351548","0.0-13.0-40.0","481415","","1119","","","","","","","","","","","2","key","2","16.740492537312743","768","250","1","80"
"","","","","","html-keyboard-response","217","352192","0.0-13.0-41.0","481415","","643","","","","","","","","","","
    <p>How confident are you in your response? Press the corresponding keys from 1 to 5 based on your experience</p>
    <ul id=""confidence-levels"">
      <li id=""conf-1"">1: Not at all confident</li>
      <li id=""conf-2"">2: Slightly confident</li>
      <li id=""conf-3"">3: Somewhat confident</li>
      <li id=""conf-4"">4: Very confident</li>
      <li id=""conf-5"">5: Completely confident</li>
    </ul>","5","","","","","","",""
"","","","","","psychophysics","218","354017","0.0-13.0-42.0","481415","","1820","","","","","","","","","","","2","key","2","16.650697247706752","768","250","1","80"
"","","","","","html-keyboard-response","219","354354","0.0-13.0-43.0","481415","","336","","","","","","","","","","
    <p>How confident are you in your response? Press the corresponding keys from 1 to 5 based on your experience</p>
    <ul id=""confidence-levels"">
      <li id=""conf-1"">1: Not at all confident</li>
      <li id=""conf-2"">2: Slightly confident</li>
      <li id=""conf-3"">3: Somewhat confident</li>
      <li id=""conf-4"">4: Very confident</li>
      <li id=""conf-5"">5: Completely confident</li>
    </ul>","5","","","","","","",""
"","","","","","psychophysics","220","355635","0.0-13.0-44.0","481415","","1271","","","","","","","","","","","2","key","2","16.770934210526512","768","250","1","200"
"","","","","","html-keyboard-response","221","355920","0.0-13.0-45.0","481415","","284","","","","","","","","","","
    <p>How confident are you in your response? Press the corresponding keys from 1 to 5 based on your experience</p>
    <ul id=""confidence-levels"">
      <li id=""conf-1"">1: Not at all confident</li>
      <li id=""conf-2"">2: Slightly confident</li>
      <li id=""conf-3"">3: Somewhat confident</li>
      <li id=""conf-4"">4: Very confident</li>
      <li id=""conf-5"">5: Completely confident</li>
    </ul>","5","","","","","","",""
"","","","","","psychophysics","222","357692","0.0-13.0-46.0","481415","","1767","","","","","","","","","","","2","key","2","16.74997169811296","768","250","1","25"
"","","","","","html-keyboard-response","223","358317","0.0-13.0-47.0","481415","","625","","","","","","","","","","
    <p>How confident are you in your response? Press the corresponding keys from 1 to 5 based on your experience</p>
    <ul id=""confidence-levels"">
      <li id=""conf-1"">1: Not at all confident</li>
      <li id=""conf-2"">2: Slightly confident</li>
      <li id=""conf-3"">3: Somewhat confident</li>
      <li id=""conf-4"">4: Very confident</li>
      <li id=""conf-5"">5: Completely confident</li>
    </ul>","5","","","","","","",""
"","","","","","psychophysics","224","360624","0.0-13.0-48.0","481415","","2302","","","","","","","","","","","2","key","2","16.66041726618712","768","250","1","100"
"","","","","","html-keyboard-response","225","360954","0.0-13.0-49.0","481415","","330","","","","","","","","","","
    <p>How confident are you in your response? Press the corresponding keys from 1 to 5 based on your experience</p>
    <ul id=""confidence-levels"">
      <li id=""conf-1"">1: Not at all confident</li>
      <li id=""conf-2"">2: Slightly confident</li>
      <li id=""conf-3"">3: Somewhat confident</li>
      <li id=""conf-4"">4: Very confident</li>
      <li id=""conf-5"">5: Completely confident</li>
    </ul>","5","","","","","","",""
"","","","","","psychophysics","226","362095","0.0-13.0-50.0","481415","","1136","","","","","","","","","","","2","key","2","16.79392647058857","768","250","1","80"
"","","","","","html-keyboard-response","227","362395","0.0-13.0-51.0","481415","","299","","","","","","","","","","
    <p>How confident are you in your response? Press the corresponding keys from 1 to 5 based on your experience</p>
    <ul id=""confidence-levels"">
      <li id=""conf-1"">1: Not at all confident</li>
      <li id=""conf-2"">2: Slightly confident</li>
      <li id=""conf-3"">3: Somewhat confident</li>
      <li id=""conf-4"">4: Very confident</li>
      <li id=""conf-5"">5: Completely confident</li>
    </ul>","5","","","","","","",""
"","","","","","psychophysics","228","363771","0.0-13.0-52.0","481415","","1372","","","","","","","","","","","2","key","2","16.570120481927795","768","250","1","300"
"","","","","","html-keyboard-response","229","364097","0.0-13.0-53.0","481415","","325","","","","","","","","","","
    <p>How confident are you in your response? Press the corresponding keys from 1 to 5 based on your experience</p>
    <ul id=""confidence-levels"">
      <li id=""conf-1"">1: Not at all confident</li>
      <li id=""conf-2"">2: Slightly confident</li>
      <li id=""conf-3"">3: Somewhat confident</li>
      <li id=""conf-4"">4: Very confident</li>
      <li id=""conf-5"">5: Completely confident</li>
    </ul>","5","","","","","","",""
"","","","","","psychophysics","230","365327","0.0-13.0-54.0","481415","","1225","","","","","","","","","","","2","key","2","16.561743243243484","768","250","1","300"
"","","","","","html-keyboard-response","231","365683","0.0-13.0-55.0","481415","","355","","","","","","","","","","
    <p>How confident are you in your response? Press the corresponding keys from 1 to 5 based on your experience</p>
    <ul id=""confidence-levels"">
      <li id=""conf-1"">1: Not at all confident</li>
      <li id=""conf-2"">2: Slightly confident</li>
      <li id=""conf-3"">3: Somewhat confident</li>
      <li id=""conf-4"">4: Very confident</li>
      <li id=""conf-5"">5: Completely confident</li>
    </ul>","5","","","","","","",""
"","","","","","psychophysics","232","366808","0.0-13.0-56.0","481415","","1120","","","","","","","","","","","2","key","2","16.784955223880658","768","250","1","80"
"","","","","","html-keyboard-response","233","367352","0.0-13.0-57.0","481415","","544","","","","","","","","","","
    <p>How confident are you in your response? Press the corresponding keys from 1 to 5 based on your experience</p>
    <ul id=""confidence-levels"">
      <li id=""conf-1"">1: Not at all confident</li>
      <li id=""conf-2"">2: Slightly confident</li>
      <li id=""conf-3"">3: Somewhat confident</li>
      <li id=""conf-4"">4: Very confident</li>
      <li id=""conf-5"">5: Completely confident</li>
    </ul>","5","","","","","","",""
"","","","","","psychophysics","234","368400","0.0-13.0-58.0","481415","","1043","","","","","","","","","","","2","key","2","16.69480645161257","768","250","1","100"
"","","","","","html-keyboard-response","235","368655","0.0-13.0-59.0","481415","","254","","","","","","","","","","
    <p>How confident are you in your response? Press the corresponding keys from 1 to 5 based on your experience</p>
    <ul id=""confidence-levels"">
      <li id=""conf-1"">1: Not at all confident</li>
      <li id=""conf-2"">2: Slightly confident</li>
      <li id=""conf-3"">3: Somewhat confident</li>
      <li id=""conf-4"">4: Very confident</li>
      <li id=""conf-5"">5: Completely confident</li>
    </ul>","5","","","","","","",""
"","","","","","psychophysics","236","369756","0.0-13.0-60.0","481415","","1096","","","","","","","","","","","2","key","2","16.82296969696957","768","250","1","150"
"","","","","","html-keyboard-response","237","370037","0.0-13.0-61.0","481415","","281","","","","","","","","","","
    <p>How confident are you in your response? Press the corresponding keys from 1 to 5 based on your experience</p>
    <ul id=""confidence-levels"">
      <li id=""conf-1"">1: Not at all confident</li>
      <li id=""conf-2"">2: Slightly confident</li>
      <li id=""conf-3"">3: Somewhat confident</li>
      <li id=""conf-4"">4: Very confident</li>
      <li id=""conf-5"">5: Completely confident</li>
    </ul>","5","","","","","","",""
"","","","","","psychophysics","238","371081","0.0-13.0-62.0","481415","","1043","","","","","","","","","","","2","key","2","16.831919354839144","768","250","1","100"
"","","","","","html-keyboard-response","239","371370","0.0-13.0-63.0","481415","","279","","","","","","","","","","
    <p>How confident are you in your response? Press the corresponding keys from 1 to 5 based on your experience</p>
    <ul id=""confidence-levels"">
      <li id=""conf-1"">1: Not at all confident</li>
      <li id=""conf-2"">2: Slightly confident</li>
      <li id=""conf-3"">3: Somewhat confident</li>
      <li id=""conf-4"">4: Very confident</li>
      <li id=""conf-5"">5: Completely confident</li>
    </ul>","5","","","","","","",""
"","","","","","psychophysics","240","372431","0.0-13.0-64.0","481415","","1057","","","","","","","","","","","2","key","2","16.812603174603456","768","250","1","100"
"","","","","","html-keyboard-response","241","372736","0.0-13.0-65.0","481415","","305","","","","","","","","","","
    <p>How confident are you in your response? Press the corresponding keys from 1 to 5 based on your experience</p>
    <ul id=""confidence-levels"">
      <li id=""conf-1"">1: Not at all confident</li>
      <li id=""conf-2"">2: Slightly confident</li>
      <li id=""conf-3"">3: Somewhat confident</li>
      <li id=""conf-4"">4: Very confident</li>
      <li id=""conf-5"">5: Completely confident</li>
    </ul>","5","","","","","","",""
"","","","","","psychophysics","242","373798","0.0-13.0-66.0","481415","","1057","","","","","","","","","","","2","key","2","16.813349206349812","768","250","1","100"
"","","","","","html-keyboard-response","243","374103","0.0-13.0-67.0","481415","","304","","","","","","","","","","
    <p>How confident are you in your response? Press the corresponding keys from 1 to 5 based on your experience</p>
    <ul id=""confidence-levels"">
      <li id=""conf-1"">1: Not at all confident</li>
      <li id=""conf-2"">2: Slightly confident</li>
      <li id=""conf-3"">3: Somewhat confident</li>
      <li id=""conf-4"">4: Very confident</li>
      <li id=""conf-5"">5: Completely confident</li>
    </ul>","5","","","","","","",""
"","","","","","psychophysics","244","375112","0.0-13.0-68.0","481415","","1007","","","","","","","","","","","2","key","2","16.821183333332495","768","250","1","25"
"","","","","","html-keyboard-response","245","375523","0.0-13.0-69.0","481415","","410","","","","","","","","","","
    <p>How confident are you in your response? Press the corresponding keys from 1 to 5 based on your experience</p>
    <ul id=""confidence-levels"">
      <li id=""conf-1"">1: Not at all confident</li>
      <li id=""conf-2"">2: Slightly confident</li>
      <li id=""conf-3"">3: Somewhat confident</li>
      <li id=""conf-4"">4: Very confident</li>
      <li id=""conf-5"">5: Completely confident</li>
    </ul>","5","","","","","","",""
"","","","","","psychophysics","246","376833","0.0-13.0-70.0","481415","","1304","","","","","","","","","","","2","key","2","16.738215189873642","768","250","1","300"
"","","","","","html-keyboard-response","247","377147","0.0-13.0-71.0","481415","","313","","","","","","","","","","
    <p>How confident are you in your response? Press the corresponding keys from 1 to 5 based on your experience</p>
    <ul id=""confidence-levels"">
      <li id=""conf-1"">1: Not at all confident</li>
      <li id=""conf-2"">2: Slightly confident</li>
      <li id=""conf-3"">3: Somewhat confident</li>
      <li id=""conf-4"">4: Very confident</li>
      <li id=""conf-5"">5: Completely confident</li>
    </ul>","5","","","","","","",""
"","","","","","psychophysics","248","378248","0.0-13.0-72.0","481415","","1097","","","","","","","","","","","2","key","2","16.80395454545435","768","250","1","50"
"","","","","","html-keyboard-response","249","378511","0.0-13.0-73.0","481415","","262","","","","","","","","","","
    <p>How confident are you in your response? Press the corresponding keys from 1 to 5 based on your experience</p>
    <ul id=""confidence-levels"">
      <li id=""conf-1"">1: Not at all confident</li>
      <li id=""conf-2"">2: Slightly confident</li>
      <li id=""conf-3"">3: Somewhat confident</li>
      <li id=""conf-4"">4: Very confident</li>
      <li id=""conf-5"">5: Completely confident</li>
    </ul>","5","","","","","","",""
"","","","","","psychophysics","250","379834","0.0-13.0-74.0","481415","","1322","","","","","","","","","","","2","key","2","16.585925000000135","768","250","1","300"
"","","","","","html-keyboard-response","251","380095","0.0-13.0-75.0","481415","","259","","","","","","","","","","
    <p>How confident are you in your response? Press the corresponding keys from 1 to 5 based on your experience</p>
    <ul id=""confidence-levels"">
      <li id=""conf-1"">1: Not at all confident</li>
      <li id=""conf-2"">2: Slightly confident</li>
      <li id=""conf-3"">3: Somewhat confident</li>
      <li id=""conf-4"">4: Very confident</li>
      <li id=""conf-5"">5: Completely confident</li>
    </ul>","5","","","","","","",""
"","","","","","psychophysics","252","381250","0.0-13.0-76.0","481415","","1151","","","","","","","","","","","2","key","2","16.823347826086767","768","250","1","150"
"","","","","","html-keyboard-response","253","381523","0.0-13.0-77.0","481415","","272","","","","","","","","","","
    <p>How confident are you in your response? Press the corresponding keys from 1 to 5 based on your experience</p>
    <ul id=""confidence-levels"">
      <li id=""conf-1"">1: Not at all confident</li>
      <li id=""conf-2"">2: Slightly confident</li>
      <li id=""conf-3"">3: Somewhat confident</li>
      <li id=""conf-4"">4: Very confident</li>
      <li id=""conf-5"">5: Completely confident</li>
    </ul>","5","","","","","","",""
"","","","","","psychophysics","254","382666","0.0-13.0-78.0","481415","","1138","","","","","","","","","","","2","key","2","16.569289855072714","768","250","1","150"
"","","","","","html-keyboard-response","255","383047","0.0-13.0-79.0","481415","","381","","","","","","","","","","
    <p>How confident are you in your response? Press the corresponding keys from 1 to 5 based on your experience</p>
    <ul id=""confidence-levels"">
      <li id=""conf-1"">1: Not at all confident</li>
      <li id=""conf-2"">2: Slightly confident</li>
      <li id=""conf-3"">3: Somewhat confident</li>
      <li id=""conf-4"">4: Very confident</li>
      <li id=""conf-5"">5: Completely confident</li>
    </ul>","5","","","","","","",""
"","","","","","psychophysics","256","384223","0.0-13.0-80.0","481415","","1172","","","","","","","","","","","2","key","2","16.769142857143223","768","250","1","50"
"","","","","","html-keyboard-response","257","384503","0.0-13.0-81.0","481415","","279","","","","","","","","","","
    <p>How confident are you in your response? Press the corresponding keys from 1 to 5 based on your experience</p>
    <ul id=""confidence-levels"">
      <li id=""conf-1"">1: Not at all confident</li>
      <li id=""conf-2"">2: Slightly confident</li>
      <li id=""conf-3"">3: Somewhat confident</li>
      <li id=""conf-4"">4: Very confident</li>
      <li id=""conf-5"">5: Completely confident</li>
    </ul>","5","","","","","","",""
"","","","","","psychophysics","258","385569","0.0-13.0-82.0","481415","","1062","","","","","","","","","","","2","key","2","16.54620312499992","768","250","1","25"
"","","","","","html-keyboard-response","259","385798","0.0-13.0-83.0","481415","","229","","","","","","","","","","
    <p>How confident are you in your response? Press the corresponding keys from 1 to 5 based on your experience</p>
    <ul id=""confidence-levels"">
      <li id=""conf-1"">1: Not at all confident</li>
      <li id=""conf-2"">2: Slightly confident</li>
      <li id=""conf-3"">3: Somewhat confident</li>
      <li id=""conf-4"">4: Very confident</li>
      <li id=""conf-5"">5: Completely confident</li>
    </ul>","5","","","","","","",""
"","","","","","psychophysics","260","387624","0.0-13.0-84.0","481415","","1821","","","","","","","","","","","2","key","2","16.772642201834802","768","250","1","300"
"","","","","","html-keyboard-response","261","387956","0.0-13.0-85.0","481415","","332","","","","","","","","","","
    <p>How confident are you in your response? Press the corresponding keys from 1 to 5 based on your experience</p>
    <ul id=""confidence-levels"">
      <li id=""conf-1"">1: Not at all confident</li>
      <li id=""conf-2"">2: Slightly confident</li>
      <li id=""conf-3"">3: Somewhat confident</li>
      <li id=""conf-4"">4: Very confident</li>
      <li id=""conf-5"">5: Completely confident</li>
    </ul>","5","","","","","","",""
"","","","","","psychophysics","262","388962","0.0-13.0-86.0","481415","","1001","","","","","","","","","","","2","key","2","16.527836065574313","768","250","1","50"
"","","","","","html-keyboard-response","263","389460","0.0-13.0-87.0","481415","","497","","","","","","","","","","
    <p>How confident are you in your response? Press the corresponding keys from 1 to 5 based on your experience</p>
    <ul id=""confidence-levels"">
      <li id=""conf-1"">1: Not at all confident</li>
      <li id=""conf-2"">2: Slightly confident</li>
      <li id=""conf-3"">3: Somewhat confident</li>
      <li id=""conf-4"">4: Very confident</li>
      <li id=""conf-5"">5: Completely confident</li>
    </ul>","5","","","","","","",""
"","","","","","psychophysics","264","390612","0.0-13.0-88.0","481415","","1148","","","","","","","","","","","2","key","2","16.72062318840577","768","250","1","200"
"","","","","","html-keyboard-response","265","390901","0.0-13.0-89.0","481415","","288","","","","","","","","","","
    <p>How confident are you in your response? Press the corresponding keys from 1 to 5 based on your experience</p>
    <ul id=""confidence-levels"">
      <li id=""conf-1"">1: Not at all confident</li>
      <li id=""conf-2"">2: Slightly confident</li>
      <li id=""conf-3"">3: Somewhat confident</li>
      <li id=""conf-4"">4: Very confident</li>
      <li id=""conf-5"">5: Completely confident</li>
    </ul>","5","","","","","","",""
"","","","","","psychophysics","266","392025","0.0-13.0-90.0","481415","","1119","","","","","","","","","","","2","key","2","16.55776119402978","768","250","1","150"
"","","","","","html-keyboard-response","267","392317","0.0-13.0-91.0","481415","","292","","","","","","","","","","
    <p>How confident are you in your response? Press the corresponding keys from 1 to 5 based on your experience</p>
    <ul id=""confidence-levels"">
      <li id=""conf-1"">1: Not at all confident</li>
      <li id=""conf-2"">2: Slightly confident</li>
      <li id=""conf-3"">3: Somewhat confident</li>
      <li id=""conf-4"">4: Very confident</li>
      <li id=""conf-5"">5: Completely confident</li>
    </ul>","5","","","","","","",""
"","","","","","psychophysics","268","393361","0.0-13.0-92.0","481415","","1040","","","","","","","","","","","2","key","2","16.552777777777962","768","250","1","80"
"","","","","","html-keyboard-response","269","393627","0.0-13.0-93.0","481415","","265","","","","","","","","","","
    <p>How confident are you in your response? Press the corresponding keys from 1 to 5 based on your experience</p>
    <ul id=""confidence-levels"">
      <li id=""conf-1"">1: Not at all confident</li>
      <li id=""conf-2"">2: Slightly confident</li>
      <li id=""conf-3"">3: Somewhat confident</li>
      <li id=""conf-4"">4: Very confident</li>
      <li id=""conf-5"">5: Completely confident</li>
    </ul>","5","","","","","","",""
"","","","","","psychophysics","270","394746","0.0-13.0-94.0","481415","","1116","","","","","","","","","","","2","key","2","16.830522388059112","768","250","1","200"
"","","","","","html-keyboard-response","271","395030","0.0-13.0-95.0","481415","","283","","","","","","","","","","
    <p>How confident are you in your response? Press the corresponding keys from 1 to 5 based on your experience</p>
    <ul id=""confidence-levels"">
      <li id=""conf-1"">1: Not at all confident</li>
      <li id=""conf-2"">2: Slightly confident</li>
      <li id=""conf-3"">3: Somewhat confident</li>
      <li id=""conf-4"">4: Very confident</li>
      <li id=""conf-5"">5: Completely confident</li>
    </ul>","5","","","","","","",""
"","","","","","psychophysics","272","397093","0.0-13.0-96.0","481415","","2060","","","","","","","","","","","2","key","2","16.741830645161006","768","250","1","50"
"","","","","","html-keyboard-response","273","397465","0.0-13.0-97.0","481415","","371","","","","","","","","","","
    <p>How confident are you in your response? Press the corresponding keys from 1 to 5 based on your experience</p>
    <ul id=""confidence-levels"">
      <li id=""conf-1"">1: Not at all confident</li>
      <li id=""conf-2"">2: Slightly confident</li>
      <li id=""conf-3"">3: Somewhat confident</li>
      <li id=""conf-4"">4: Very confident</li>
      <li id=""conf-5"">5: Completely confident</li>
    </ul>","5","","","","","","",""
"","","","","","html-keyboard-response","274","398917","0.0-14.0","481415","","1451","","","","","","","","","","Your average response time is 837.469 ms You are doing great"," ","","","","","","",""
"","","","","","survey-text","275","418538","0.0-15.0","481415","","19607","","","","","","","","","","","{""EasyToUnderstand"":""Yes"",""Suggestions"":""No"",""Interface"":""No"",""Perception"":""Yes""}","","","","","","",""
"","","","","","html-keyboard-response","276","420006","0.0-16.0","481415","","1467","","","","","","","","","","You have successfully completed all the trials. Thank you for your time. Goodbye :)"," ","","","","","","",""
