"success","timeout","failed_images","failed_audio","failed_video","trial_type","trial_index","time_elapsed","internal_node_id","participant_id","view_history","rt","item_width_mm","item_height_mm","item_width_px","px2mm","view_dist_mm","item_width_deg","px2deg","win_width_deg","win_height_deg","stimulus","response","response_type","key_press","avg_frame_time","center_x","center_y","correct_response","illusion"
"true","false","[]","[]","[]","preload","0","280","0.0-0.0","288832","","","","","","","","","","","","","","","","","","","",""
"","","","","","instructions","1","18798","0.0-1.0","288832","[{""page_index"":0,""viewing_time"":2045},{""page_index"":1,""viewing_time"":3008},{""page_index"":2,""viewing_time"":1320},{""page_index"":1,""viewing_time"":7384},{""page_index"":2,""viewing_time"":1299},{""page_index"":1,""viewing_time"":933},{""page_index"":2,""viewing_time"":2527}]","18517","","","","","","","","","","","","","","","","","",""
"true","","","","","fullscreen","2","20659","0.0-2.0","288832","","","","","","","","","","","","","","","","","","","",""
"","","","","","virtual-chinrest","3","48586","0.0-3.0","288832","","27925","85.6","53.98","488","5.7","403.62","12.10608672655494","40.310301009950834","47.63050515365878","26.792159148933067","","","","","","","","",""
"","","","","","html-keyboard-response","4","49871","0.0-4.0","288832","","1282","","","","","","","","","","This is just trial run, press Space bar to continue"," ","","","","","","",""
"","","","","","psychophysics","5","53784","0.0-5.0-0.0","288832","","3894","","","","","","","","","","","1","key","1","16.871129870129902","960","250","1","NO"
"","","","","","psychophysics","6","57454","0.0-5.0-1.0","288832","","3657","","","","","","","","","","","1","key","1","16.65768181818183","960","250","1","No"
"","","","","","psychophysics","7","59347","0.0-5.0-2.0","288832","","1882","","","","","","","","","","","1","key","1","16.657619469026564","960","250","0","NO"
"","","","","","psychophysics","8","61029","0.0-5.0-3.0","288832","","1670","","","","","","","","","","","1","key","1","16.657070000000022","960","250","1","YES"
"","","","","","psychophysics","9","62282","0.0-5.0-4.0","288832","","1245","","","","","","","","","","","0","key","0","16.65586486486476","960","250","0","NO"
"","","","","","psychophysics","10","63700","0.0-5.0-5.0","288832","","1406","","","","","","","","","","","1","key","1","16.658511904761934","960","250","1","YES"
"","","","","","psychophysics","11","64826","0.0-5.0-6.0","288832","","1114","","","","","","","","","","","1","key","1","16.656791044776188","960","250","1","No"
"","","","","","psychophysics","12","66244","0.0-5.0-7.0","288832","","1412","","","","","","","","","","","1","key","1","16.65755952380953","960","250","1","NO"
"","","","","","html-keyboard-response","13","67717","0.0-6.0","288832","","1470","","","","","","","","","","You have successfully completed the pilot , Press Space bar to continue to main block of experiment"," ","","","","","","",""
"","","","","","psychophysics","14","68823","0.0-7.0-0.0","288832","","1093","","","","","","","","","","","1","key","1","16.647257575757536","960","250","1","No"
"","","","","","html-keyboard-response","15","70703","0.0-7.0-1.0","288832","","1876","","","","","","","","","","
    <p>How confident are you in your response? Press the corresponding keys from 1 to 5 based on your experience</p>
    <ul id=""confidence-levels"">
      <li id=""conf-1"">1: Not at all confident</li>
      <li id=""conf-2"">2: Slightly confident</li>
      <li id=""conf-3"">3: Somewhat confident</li>
      <li id=""conf-4"">4: Very confident</li>
      <li id=""conf-5"">5: Completely confident</li>
    </ul>","5","","","","","","",""
"","","","","","psychophysics","16","73337","0.0-7.0-2.0","288832","","2620","","","","","","","","","","","2","key","2","16.65121518987346","960","250","1","YES"
"","","","","","html-keyboard-response","17","74789","0.0-7.0-3.0","288832","","1449","","","","","","","","","","
    <p>How confident are you in your response? Press the corresponding keys from 1 to 5 based on your experience</p>
    <ul id=""confidence-levels"">
      <li id=""conf-1"">1: Not at all confident</li>
      <li id=""conf-2"">2: Slightly confident</li>
      <li id=""conf-3"">3: Somewhat confident</li>
      <li id=""conf-4"">4: Very confident</li>
      <li id=""conf-5"">5: Completely confident</li>
    </ul>","3","","","","","","",""
"","","","","","psychophysics","18","75940","0.0-7.0-4.0","288832","","1136","","","","","","","","","","","0","key","0","16.647768115941975","960","250","0","NO"
"","","","","","html-keyboard-response","19","76951","0.0-7.0-5.0","288832","","1009","","","","","","","","","","
    <p>How confident are you in your response? Press the corresponding keys from 1 to 5 based on your experience</p>
    <ul id=""confidence-levels"">
      <li id=""conf-1"">1: Not at all confident</li>
      <li id=""conf-2"">2: Slightly confident</li>
      <li id=""conf-3"">3: Somewhat confident</li>
      <li id=""conf-4"">4: Very confident</li>
      <li id=""conf-5"">5: Completely confident</li>
    </ul>","4","","","","","","",""
"","","","","","psychophysics","20","79014","0.0-7.0-6.0","288832","","2051","","","","","","","","","","","0","key","0","16.65356097560969","960","250","1","NO"
"","","","","","html-keyboard-response","21","80543","0.0-7.0-7.0","288832","","1525","","","","","","","","","","
    <p>How confident are you in your response? Press the corresponding keys from 1 to 5 based on your experience</p>
    <ul id=""confidence-levels"">
      <li id=""conf-1"">1: Not at all confident</li>
      <li id=""conf-2"">2: Slightly confident</li>
      <li id=""conf-3"">3: Somewhat confident</li>
      <li id=""conf-4"">4: Very confident</li>
      <li id=""conf-5"">5: Completely confident</li>
    </ul>","5","","","","","","",""
"","","","","","psychophysics","22","83176","0.0-7.0-8.0","288832","","2623","","","","","","","","","","","0","key","0","16.65202547770693","960","250","1","NO"
"","","","","","html-keyboard-response","23","83672","0.0-7.0-9.0","288832","","494","","","","","","","","","","
    <p>How confident are you in your response? Press the corresponding keys from 1 to 5 based on your experience</p>
    <ul id=""confidence-levels"">
      <li id=""conf-1"">1: Not at all confident</li>
      <li id=""conf-2"">2: Slightly confident</li>
      <li id=""conf-3"">3: Somewhat confident</li>
      <li id=""conf-4"">4: Very confident</li>
      <li id=""conf-5"">5: Completely confident</li>
    </ul>","5","","","","","","",""
"","","","","","psychophysics","24","84988","0.0-7.0-10.0","288832","","1301","","","","","","","","","","","1","key","1","16.654734177215214","960","250","1","No"
"","","","","","html-keyboard-response","25","85989","0.0-7.0-11.0","288832","","999","","","","","","","","","","
    <p>How confident are you in your response? Press the corresponding keys from 1 to 5 based on your experience</p>
    <ul id=""confidence-levels"">
      <li id=""conf-1"">1: Not at all confident</li>
      <li id=""conf-2"">2: Slightly confident</li>
      <li id=""conf-3"">3: Somewhat confident</li>
      <li id=""conf-4"">4: Very confident</li>
      <li id=""conf-5"">5: Completely confident</li>
    </ul>","5","","","","","","",""
"","","","","","psychophysics","26","90356","0.0-7.0-12.0","288832","","4352","","","","","","","","","","","0","key","0","16.655088122605374","960","250","0","NO"
"","","","","","html-keyboard-response","27","91331","0.0-7.0-13.0","288832","","972","","","","","","","","","","
    <p>How confident are you in your response? Press the corresponding keys from 1 to 5 based on your experience</p>
    <ul id=""confidence-levels"">
      <li id=""conf-1"">1: Not at all confident</li>
      <li id=""conf-2"">2: Slightly confident</li>
      <li id=""conf-3"">3: Somewhat confident</li>
      <li id=""conf-4"">4: Very confident</li>
      <li id=""conf-5"">5: Completely confident</li>
    </ul>","5","","","","","","",""
"","","","","","psychophysics","28","92458","0.0-7.0-14.0","288832","","1113","","","","","","","","","","","1","key","1","16.649852941176505","960","250","1","No"
"","","","","","html-keyboard-response","29","93057","0.0-7.0-15.0","288832","","596","","","","","","","","","","
    <p>How confident are you in your response? Press the corresponding keys from 1 to 5 based on your experience</p>
    <ul id=""confidence-levels"">
      <li id=""conf-1"">1: Not at all confident</li>
      <li id=""conf-2"">2: Slightly confident</li>
      <li id=""conf-3"">3: Somewhat confident</li>
      <li id=""conf-4"">4: Very confident</li>
      <li id=""conf-5"">5: Completely confident</li>
    </ul>","5","","","","","","",""
"","","","","","psychophysics","30","94934","0.0-7.0-16.0","288832","","1861","","","","","","","","","","","0","key","0","16.655473214285717","960","250","0","NO"
"","","","","","html-keyboard-response","31","95254","0.0-7.0-17.0","288832","","318","","","","","","","","","","
    <p>How confident are you in your response? Press the corresponding keys from 1 to 5 based on your experience</p>
    <ul id=""confidence-levels"">
      <li id=""conf-1"">1: Not at all confident</li>
      <li id=""conf-2"">2: Slightly confident</li>
      <li id=""conf-3"">3: Somewhat confident</li>
      <li id=""conf-4"">4: Very confident</li>
      <li id=""conf-5"">5: Completely confident</li>
    </ul>","5","","","","","","",""
"","","","","","psychophysics","32","97076","0.0-7.0-18.0","288832","","1811","","","","","","","","","","","2","key","2","16.657449541284507","960","250","1","YES"
"","","","","","html-keyboard-response","33","97540","0.0-7.0-19.0","288832","","462","","","","","","","","","","
    <p>How confident are you in your response? Press the corresponding keys from 1 to 5 based on your experience</p>
    <ul id=""confidence-levels"">
      <li id=""conf-1"">1: Not at all confident</li>
      <li id=""conf-2"">2: Slightly confident</li>
      <li id=""conf-3"">3: Somewhat confident</li>
      <li id=""conf-4"">4: Very confident</li>
      <li id=""conf-5"">5: Completely confident</li>
    </ul>","5","","","","","","",""
"","","","","","psychophysics","34","99127","0.0-7.0-20.0","288832","","1573","","","","","","","","","","","2","key","2","16.654715789473727","960","250","1","YES"
"","","","","","html-keyboard-response","35","99487","0.0-7.0-21.0","288832","","359","","","","","","","","","","
    <p>How confident are you in your response? Press the corresponding keys from 1 to 5 based on your experience</p>
    <ul id=""confidence-levels"">
      <li id=""conf-1"">1: Not at all confident</li>
      <li id=""conf-2"">2: Slightly confident</li>
      <li id=""conf-3"">3: Somewhat confident</li>
      <li id=""conf-4"">4: Very confident</li>
      <li id=""conf-5"">5: Completely confident</li>
    </ul>","5","","","","","","",""
"","","","","","psychophysics","36","100899","0.0-7.0-22.0","288832","","1400","","","","","","","","","","","1","key","1","16.656023809523806","960","250","1","NO"
"","","","","","html-keyboard-response","37","103827","0.0-7.0-23.0","288832","","2926","","","","","","","","","","
    <p>How confident are you in your response? Press the corresponding keys from 1 to 5 based on your experience</p>
    <ul id=""confidence-levels"">
      <li id=""conf-1"">1: Not at all confident</li>
      <li id=""conf-2"">2: Slightly confident</li>
      <li id=""conf-3"">3: Somewhat confident</li>
      <li id=""conf-4"">4: Very confident</li>
      <li id=""conf-5"">5: Completely confident</li>
    </ul>","1","","","","","","",""
"","","","","","psychophysics","38","105176","0.0-7.0-24.0","288832","","1329","","","","","","","","","","","0","key","0","16.849912500000027","960","250","0","NO"
"","","","","","html-keyboard-response","39","105751","0.0-7.0-25.0","288832","","573","","","","","","","","","","
    <p>How confident are you in your response? Press the corresponding keys from 1 to 5 based on your experience</p>
    <ul id=""confidence-levels"">
      <li id=""conf-1"">1: Not at all confident</li>
      <li id=""conf-2"">2: Slightly confident</li>
      <li id=""conf-3"">3: Somewhat confident</li>
      <li id=""conf-4"">4: Very confident</li>
      <li id=""conf-5"">5: Completely confident</li>
    </ul>","5","","","","","","",""
"","","","","","psychophysics","40","107063","0.0-7.0-26.0","288832","","1299","","","","","","","","","","","0","key","0","16.652743589743643","960","250","1","No"
"","","","","","html-keyboard-response","41","107414","0.0-7.0-27.0","288832","","349","","","","","","","","","","
    <p>How confident are you in your response? Press the corresponding keys from 1 to 5 based on your experience</p>
    <ul id=""confidence-levels"">
      <li id=""conf-1"">1: Not at all confident</li>
      <li id=""conf-2"">2: Slightly confident</li>
      <li id=""conf-3"">3: Somewhat confident</li>
      <li id=""conf-4"">4: Very confident</li>
      <li id=""conf-5"">5: Completely confident</li>
    </ul>","5","","","","","","",""
"","","","","","psychophysics","42","108817","0.0-7.0-28.0","288832","","1394","","","","","","","","","","","0","key","0","16.655178571428614","960","250","0","NO"
"","","","","","html-keyboard-response","43","109002","0.0-7.0-29.0","288832","","183","","","","","","","","","","
    <p>How confident are you in your response? Press the corresponding keys from 1 to 5 based on your experience</p>
    <ul id=""confidence-levels"">
      <li id=""conf-1"">1: Not at all confident</li>
      <li id=""conf-2"">2: Slightly confident</li>
      <li id=""conf-3"">3: Somewhat confident</li>
      <li id=""conf-4"">4: Very confident</li>
      <li id=""conf-5"">5: Completely confident</li>
    </ul>","5","","","","","","",""
"","","","","","psychophysics","44","110064","0.0-7.0-30.0","288832","","1051","","","","","","","","","","","1","key","1","16.65690625000002","960","250","1","No"
"","","","","","html-keyboard-response","45","110603","0.0-7.0-31.0","288832","","537","","","","","","","","","","
    <p>How confident are you in your response? Press the corresponding keys from 1 to 5 based on your experience</p>
    <ul id=""confidence-levels"">
      <li id=""conf-1"">1: Not at all confident</li>
      <li id=""conf-2"">2: Slightly confident</li>
      <li id=""conf-3"">3: Somewhat confident</li>
      <li id=""conf-4"">4: Very confident</li>
      <li id=""conf-5"">5: Completely confident</li>
    </ul>","5","","","","","","",""
"","","","","","psychophysics","46","112404","0.0-7.0-32.0","288832","","1792","","","","","","","","","","","0","key","0","16.655824074074054","960","250","0","NO"
"","","","","","html-keyboard-response","47","112582","0.0-7.0-33.0","288832","","176","","","","","","","","","","
    <p>How confident are you in your response? Press the corresponding keys from 1 to 5 based on your experience</p>
    <ul id=""confidence-levels"">
      <li id=""conf-1"">1: Not at all confident</li>
      <li id=""conf-2"">2: Slightly confident</li>
      <li id=""conf-3"">3: Somewhat confident</li>
      <li id=""conf-4"">4: Very confident</li>
      <li id=""conf-5"">5: Completely confident</li>
    </ul>","5","","","","","","",""
"","","","","","psychophysics","48","114539","0.0-7.0-34.0","288832","","1944","","","","","","","","","","","0","key","0","16.6570427350427","960","250","1","YES"
"","","","","","html-keyboard-response","49","114743","0.0-7.0-35.0","288832","","202","","","","","","","","","","
    <p>How confident are you in your response? Press the corresponding keys from 1 to 5 based on your experience</p>
    <ul id=""confidence-levels"">
      <li id=""conf-1"">1: Not at all confident</li>
      <li id=""conf-2"">2: Slightly confident</li>
      <li id=""conf-3"">3: Somewhat confident</li>
      <li id=""conf-4"">4: Very confident</li>
      <li id=""conf-5"">5: Completely confident</li>
    </ul>","5","","","","","","",""
"","","","","","psychophysics","50","116264","0.0-7.0-36.0","288832","","1508","","","","","","","","","","","0","key","0","16.657175824175823","960","250","0","NO"
"","","","","","html-keyboard-response","51","116542","0.0-7.0-37.0","288832","","276","","","","","","","","","","
    <p>How confident are you in your response? Press the corresponding keys from 1 to 5 based on your experience</p>
    <ul id=""confidence-levels"">
      <li id=""conf-1"">1: Not at all confident</li>
      <li id=""conf-2"">2: Slightly confident</li>
      <li id=""conf-3"">3: Somewhat confident</li>
      <li id=""conf-4"">4: Very confident</li>
      <li id=""conf-5"">5: Completely confident</li>
    </ul>","5","","","","","","",""
"","","","","","psychophysics","52","118065","0.0-7.0-38.0","288832","","1513","","","","","","","","","","","0","key","0","16.655637362637368","960","250","0","NO"
"","","","","","html-keyboard-response","53","118390","0.0-7.0-39.0","288832","","324","","","","","","","","","","
    <p>How confident are you in your response? Press the corresponding keys from 1 to 5 based on your experience</p>
    <ul id=""confidence-levels"">
      <li id=""conf-1"">1: Not at all confident</li>
      <li id=""conf-2"">2: Slightly confident</li>
      <li id=""conf-3"">3: Somewhat confident</li>
      <li id=""conf-4"">4: Very confident</li>
      <li id=""conf-5"">5: Completely confident</li>
    </ul>","5","","","","","","",""
"","","","","","psychophysics","54","119446","0.0-7.0-40.0","288832","","1044","","","","","","","","","","","1","key","1","16.656333333333134","960","250","1","No"
"","","","","","html-keyboard-response","55","119810","0.0-7.0-41.0","288832","","363","","","","","","","","","","
    <p>How confident are you in your response? Press the corresponding keys from 1 to 5 based on your experience</p>
    <ul id=""confidence-levels"">
      <li id=""conf-1"">1: Not at all confident</li>
      <li id=""conf-2"">2: Slightly confident</li>
      <li id=""conf-3"">3: Somewhat confident</li>
      <li id=""conf-4"">4: Very confident</li>
      <li id=""conf-5"">5: Completely confident</li>
    </ul>","5","","","","","","",""
"","","","","","psychophysics","56","121360","0.0-7.0-42.0","288832","","1538","","","","","","","","","","","0","key","0","16.655731182795623","960","250","1","NO"
"","","","","","html-keyboard-response","57","121636","0.0-7.0-43.0","288832","","272","","","","","","","","","","
    <p>How confident are you in your response? Press the corresponding keys from 1 to 5 based on your experience</p>
    <ul id=""confidence-levels"">
      <li id=""conf-1"">1: Not at all confident</li>
      <li id=""conf-2"">2: Slightly confident</li>
      <li id=""conf-3"">3: Somewhat confident</li>
      <li id=""conf-4"">4: Very confident</li>
      <li id=""conf-5"">5: Completely confident</li>
    </ul>","5","","","","","","",""
"","","","","","psychophysics","58","123500","0.0-7.0-44.0","288832","","1854","","","","","","","","","","","0","key","0","16.656270270270316","960","250","1","NO"
"","","","","","html-keyboard-response","59","123738","0.0-7.0-45.0","288832","","236","","","","","","","","","","
    <p>How confident are you in your response? Press the corresponding keys from 1 to 5 based on your experience</p>
    <ul id=""confidence-levels"">
      <li id=""conf-1"">1: Not at all confident</li>
      <li id=""conf-2"">2: Slightly confident</li>
      <li id=""conf-3"">3: Somewhat confident</li>
      <li id=""conf-4"">4: Very confident</li>
      <li id=""conf-5"">5: Completely confident</li>
    </ul>","5","","","","","","",""
"","","","","","psychophysics","60","125408","0.0-7.0-46.0","288832","","1658","","","","","","","","","","","0","key","0","16.65679999999993","960","250","0","NO"
"","","","","","html-keyboard-response","61","125575","0.0-7.0-47.0","288832","","166","","","","","","","","","","
    <p>How confident are you in your response? Press the corresponding keys from 1 to 5 based on your experience</p>
    <ul id=""confidence-levels"">
      <li id=""conf-1"">1: Not at all confident</li>
      <li id=""conf-2"">2: Slightly confident</li>
      <li id=""conf-3"">3: Somewhat confident</li>
      <li id=""conf-4"">4: Very confident</li>
      <li id=""conf-5"">5: Completely confident</li>
    </ul>","5","","","","","","",""
"","","","","","psychophysics","62","126698","0.0-7.0-48.0","288832","","1110","","","","","","","","","","","1","key","1","16.65610447761198","960","250","1","No"
"","","","","","html-keyboard-response","63","127194","0.0-7.0-49.0","288832","","493","","","","","","","","","","
    <p>How confident are you in your response? Press the corresponding keys from 1 to 5 based on your experience</p>
    <ul id=""confidence-levels"">
      <li id=""conf-1"">1: Not at all confident</li>
      <li id=""conf-2"">2: Slightly confident</li>
      <li id=""conf-3"">3: Somewhat confident</li>
      <li id=""conf-4"">4: Very confident</li>
      <li id=""conf-5"">5: Completely confident</li>
    </ul>","5","","","","","","",""
"","","","","","psychophysics","64","128683","0.0-7.0-50.0","288832","","1479","","","","","","","","","","","0","key","0","16.659280898876318","960","250","0","NO"
"","","","","","html-keyboard-response","65","128844","0.0-7.0-51.0","288832","","159","","","","","","","","","","
    <p>How confident are you in your response? Press the corresponding keys from 1 to 5 based on your experience</p>
    <ul id=""confidence-levels"">
      <li id=""conf-1"">1: Not at all confident</li>
      <li id=""conf-2"">2: Slightly confident</li>
      <li id=""conf-3"">3: Somewhat confident</li>
      <li id=""conf-4"">4: Very confident</li>
      <li id=""conf-5"">5: Completely confident</li>
    </ul>","5","","","","","","",""
"","","","","","psychophysics","66","130662","0.0-7.0-52.0","288832","","1806","","","","","","","","","","","0","key","0","16.656853211009256","960","250","1","NO"
"","","","","","html-keyboard-response","67","130907","0.0-7.0-53.0","288832","","243","","","","","","","","","","
    <p>How confident are you in your response? Press the corresponding keys from 1 to 5 based on your experience</p>
    <ul id=""confidence-levels"">
      <li id=""conf-1"">1: Not at all confident</li>
      <li id=""conf-2"">2: Slightly confident</li>
      <li id=""conf-3"">3: Somewhat confident</li>
      <li id=""conf-4"">4: Very confident</li>
      <li id=""conf-5"">5: Completely confident</li>
    </ul>","5","","","","","","",""
"","","","","","psychophysics","68","132587","0.0-7.0-54.0","288832","","1668","","","","","","","","","","","0","key","0","16.656821782178","960","250","1","YES"
"","","","","","html-keyboard-response","69","132741","0.0-7.0-55.0","288832","","152","","","","","","","","","","
    <p>How confident are you in your response? Press the corresponding keys from 1 to 5 based on your experience</p>
    <ul id=""confidence-levels"">
      <li id=""conf-1"">1: Not at all confident</li>
      <li id=""conf-2"">2: Slightly confident</li>
      <li id=""conf-3"">3: Somewhat confident</li>
      <li id=""conf-4"">4: Very confident</li>
      <li id=""conf-5"">5: Completely confident</li>
    </ul>","5","","","","","","",""
"","","","","","psychophysics","70","134020","0.0-7.0-56.0","288832","","1266","","","","","","","","","","","1","key","1","16.657441558441835","960","250","1","No"
"","","","","","html-keyboard-response","71","134255","0.0-7.0-57.0","288832","","233","","","","","","","","","","
    <p>How confident are you in your response? Press the corresponding keys from 1 to 5 based on your experience</p>
    <ul id=""confidence-levels"">
      <li id=""conf-1"">1: Not at all confident</li>
      <li id=""conf-2"">2: Slightly confident</li>
      <li id=""conf-3"">3: Somewhat confident</li>
      <li id=""conf-4"">4: Very confident</li>
      <li id=""conf-5"">5: Completely confident</li>
    </ul>","5","","","","","","",""
"","","","","","psychophysics","72","135619","0.0-7.0-58.0","288832","","1351","","","","","","","","","","","0","key","0","16.65634146341472","960","250","1","NO"
"","","","","","html-keyboard-response","73","135786","0.0-7.0-59.0","288832","","165","","","","","","","","","","
    <p>How confident are you in your response? Press the corresponding keys from 1 to 5 based on your experience</p>
    <ul id=""confidence-levels"">
      <li id=""conf-1"">1: Not at all confident</li>
      <li id=""conf-2"">2: Slightly confident</li>
      <li id=""conf-3"">3: Somewhat confident</li>
      <li id=""conf-4"">4: Very confident</li>
      <li id=""conf-5"">5: Completely confident</li>
    </ul>","5","","","","","","",""
"","","","","","psychophysics","74","137158","0.0-7.0-60.0","288832","","1355","","","","","","","","","","","0","key","0","16.664804878049083","960","250","1","No"
"","","","","","html-keyboard-response","75","137301","0.0-7.0-61.0","288832","","142","","","","","","","","","","
    <p>How confident are you in your response? Press the corresponding keys from 1 to 5 based on your experience</p>
    <ul id=""confidence-levels"">
      <li id=""conf-1"">1: Not at all confident</li>
      <li id=""conf-2"">2: Slightly confident</li>
      <li id=""conf-3"">3: Somewhat confident</li>
      <li id=""conf-4"">4: Very confident</li>
      <li id=""conf-5"">5: Completely confident</li>
    </ul>","5","","","","","","",""
"","","","","","psychophysics","76","139399","0.0-7.0-62.0","288832","","2088","","","","","","","","","","","0","key","0","16.657444444444355","960","250","1","NO"
"","","","","","html-keyboard-response","77","139521","0.0-7.0-63.0","288832","","120","","","","","","","","","","
    <p>How confident are you in your response? Press the corresponding keys from 1 to 5 based on your experience</p>
    <ul id=""confidence-levels"">
      <li id=""conf-1"">1: Not at all confident</li>
      <li id=""conf-2"">2: Slightly confident</li>
      <li id=""conf-3"">3: Somewhat confident</li>
      <li id=""conf-4"">4: Very confident</li>
      <li id=""conf-5"">5: Completely confident</li>
    </ul>","5","","","","","","",""
"","","","","","psychophysics","78","141073","0.0-7.0-64.0","288832","","1540","","","","","","","","","","","0","key","0","16.656290322580368","960","250","1","NO"
"","","","","","html-keyboard-response","79","141239","0.0-7.0-65.0","288832","","165","","","","","","","","","","
    <p>How confident are you in your response? Press the corresponding keys from 1 to 5 based on your experience</p>
    <ul id=""confidence-levels"">
      <li id=""conf-1"">1: Not at all confident</li>
      <li id=""conf-2"">2: Slightly confident</li>
      <li id=""conf-3"">3: Somewhat confident</li>
      <li id=""conf-4"">4: Very confident</li>
      <li id=""conf-5"">5: Completely confident</li>
    </ul>","5","","","","","","",""
"","","","","","psychophysics","80","142496","0.0-7.0-66.0","288832","","1245","","","","","","","","","","","0","key","0","16.651131578947428","960","250","1","YES"
"","","","","","html-keyboard-response","81","142630","0.0-7.0-67.0","288832","","132","","","","","","","","","","
    <p>How confident are you in your response? Press the corresponding keys from 1 to 5 based on your experience</p>
    <ul id=""confidence-levels"">
      <li id=""conf-1"">1: Not at all confident</li>
      <li id=""conf-2"">2: Slightly confident</li>
      <li id=""conf-3"">3: Somewhat confident</li>
      <li id=""conf-4"">4: Very confident</li>
      <li id=""conf-5"">5: Completely confident</li>
    </ul>","5","","","","","","",""
"","","","","","psychophysics","82","143719","0.0-7.0-68.0","288832","","1078","","","","","","","","","","","1","key","1","16.65763076923098","960","250","1","No"
"","","","","","html-keyboard-response","83","143984","0.0-7.0-69.0","288832","","263","","","","","","","","","","
    <p>How confident are you in your response? Press the corresponding keys from 1 to 5 based on your experience</p>
    <ul id=""confidence-levels"">
      <li id=""conf-1"">1: Not at all confident</li>
      <li id=""conf-2"">2: Slightly confident</li>
      <li id=""conf-3"">3: Somewhat confident</li>
      <li id=""conf-4"">4: Very confident</li>
      <li id=""conf-5"">5: Completely confident</li>
    </ul>","5","","","","","","",""
"","","","","","psychophysics","84","145484","0.0-7.0-70.0","288832","","1486","","","","","","","","","","","0","key","0","16.65679999999993","960","250","1","YES"
"","","","","","html-keyboard-response","85","145618","0.0-7.0-71.0","288832","","134","","","","","","","","","","
    <p>How confident are you in your response? Press the corresponding keys from 1 to 5 based on your experience</p>
    <ul id=""confidence-levels"">
      <li id=""conf-1"">1: Not at all confident</li>
      <li id=""conf-2"">2: Slightly confident</li>
      <li id=""conf-3"">3: Somewhat confident</li>
      <li id=""conf-4"">4: Very confident</li>
      <li id=""conf-5"">5: Completely confident</li>
    </ul>","5","","","","","","",""
"","","","","","psychophysics","86","146656","0.0-7.0-72.0","288832","","1026","","","","","","","","","","","0","key","0","16.656032258064972","960","250","1","YES"
"","","","","","html-keyboard-response","87","146827","0.0-7.0-73.0","288832","","169","","","","","","","","","","
    <p>How confident are you in your response? Press the corresponding keys from 1 to 5 based on your experience</p>
    <ul id=""confidence-levels"">
      <li id=""conf-1"">1: Not at all confident</li>
      <li id=""conf-2"">2: Slightly confident</li>
      <li id=""conf-3"">3: Somewhat confident</li>
      <li id=""conf-4"">4: Very confident</li>
      <li id=""conf-5"">5: Completely confident</li>
    </ul>","5","","","","","","",""
"","","","","","psychophysics","88","147866","0.0-7.0-74.0","288832","","1026","","","","","","","","","","","1","key","1","16.655854838709686","960","250","1","YES"
"","","","","","html-keyboard-response","89","148058","0.0-7.0-75.0","288832","","191","","","","","","","","","","
    <p>How confident are you in your response? Press the corresponding keys from 1 to 5 based on your experience</p>
    <ul id=""confidence-levels"">
      <li id=""conf-1"">1: Not at all confident</li>
      <li id=""conf-2"">2: Slightly confident</li>
      <li id=""conf-3"">3: Somewhat confident</li>
      <li id=""conf-4"">4: Very confident</li>
      <li id=""conf-5"">5: Completely confident</li>
    </ul>","5","","","","","","",""
"","","","","","psychophysics","90","149710","0.0-7.0-76.0","288832","","1642","","","","","","","","","","","1","key","1","16.657505050504984","960","250","1","NO"
"","","","","","html-keyboard-response","91","149977","0.0-7.0-77.0","288832","","265","","","","","","","","","","
    <p>How confident are you in your response? Press the corresponding keys from 1 to 5 based on your experience</p>
    <ul id=""confidence-levels"">
      <li id=""conf-1"">1: Not at all confident</li>
      <li id=""conf-2"">2: Slightly confident</li>
      <li id=""conf-3"">3: Somewhat confident</li>
      <li id=""conf-4"">4: Very confident</li>
      <li id=""conf-5"">5: Completely confident</li>
    </ul>","5","","","","","","",""
"","","","","","psychophysics","92","151743","0.0-7.0-78.0","288832","","1749","","","","","","","","","","","0","key","0","16.657188679245113","960","250","1","YES"
"","","","","","html-keyboard-response","93","152043","0.0-7.0-79.0","288832","","299","","","","","","","","","","
    <p>How confident are you in your response? Press the corresponding keys from 1 to 5 based on your experience</p>
    <ul id=""confidence-levels"">
      <li id=""conf-1"">1: Not at all confident</li>
      <li id=""conf-2"">2: Slightly confident</li>
      <li id=""conf-3"">3: Somewhat confident</li>
      <li id=""conf-4"">4: Very confident</li>
      <li id=""conf-5"">5: Completely confident</li>
    </ul>","5","","","","","","",""
"","","","","","html-keyboard-response","94","155388","0.0-8.0","288832","","3343","","","","","","","","","","Your average response time is  2047.222 ms You are doing great"," ","","","","","","",""
"","","","","","html-button-response","95","216859","0.0-9.0","288832","","61468","","","","","","","","","","<p>You have successfully completed one block of the experiment. The next part of the experiment can be started in <span id=""clock"">1:00</span> <br>You can take a break for a minute or more if you like and Press continue when you are ready","0","","","","","","",""
"","","","","","psychophysics","96","219623","0.0-10.0-0.0","288832","","2748","","","","","","","","","","","1","key","1","16.757187878787978","960","250","1","YES"
"","","","","","html-keyboard-response","97","220424","0.0-10.0-1.0","288832","","799","","","","","","","","","","
    <p>How confident are you in your response? Press the corresponding keys from 1 to 5 based on your experience</p>
    <ul id=""confidence-levels"">
      <li id=""conf-1"">1: Not at all confident</li>
      <li id=""conf-2"">2: Slightly confident</li>
      <li id=""conf-3"">3: Somewhat confident</li>
      <li id=""conf-4"">4: Very confident</li>
      <li id=""conf-5"">5: Completely confident</li>
    </ul>","5","","","","","","",""
"","","","","","psychophysics","98","222743","0.0-10.0-2.0","288832","","2307","","","","","","","","","","","2","key","2","16.654920863309453","960","250","2","YES"
"","","","","","html-keyboard-response","99","223207","0.0-10.0-3.0","288832","","463","","","","","","","","","","
    <p>How confident are you in your response? Press the corresponding keys from 1 to 5 based on your experience</p>
    <ul id=""confidence-levels"">
      <li id=""conf-1"">1: Not at all confident</li>
      <li id=""conf-2"">2: Slightly confident</li>
      <li id=""conf-3"">3: Somewhat confident</li>
      <li id=""conf-4"">4: Very confident</li>
      <li id=""conf-5"">5: Completely confident</li>
    </ul>","5","","","","","","",""
"","","","","","psychophysics","100","224887","0.0-10.0-4.0","288832","","1668","","","","","","","","","","","1","key","1","16.655584158415913","960","250","1","YES"
"","","","","","html-keyboard-response","101","225220","0.0-10.0-5.0","288832","","331","","","","","","","","","","
    <p>How confident are you in your response? Press the corresponding keys from 1 to 5 based on your experience</p>
    <ul id=""confidence-levels"">
      <li id=""conf-1"">1: Not at all confident</li>
      <li id=""conf-2"">2: Slightly confident</li>
      <li id=""conf-3"">3: Somewhat confident</li>
      <li id=""conf-4"">4: Very confident</li>
      <li id=""conf-5"">5: Completely confident</li>
    </ul>","5","","","","","","",""
"","","","","","psychophysics","102","226672","0.0-10.0-6.0","288832","","1441","","","","","","","","","","","1","key","1","16.655413793103538","960","250","1","YES"
"","","","","","html-keyboard-response","103","226923","0.0-10.0-7.0","288832","","249","","","","","","","","","","
    <p>How confident are you in your response? Press the corresponding keys from 1 to 5 based on your experience</p>
    <ul id=""confidence-levels"">
      <li id=""conf-1"">1: Not at all confident</li>
      <li id=""conf-2"">2: Slightly confident</li>
      <li id=""conf-3"">3: Somewhat confident</li>
      <li id=""conf-4"">4: Very confident</li>
      <li id=""conf-5"">5: Completely confident</li>
    </ul>","5","","","","","","",""
"","","","","","psychophysics","104","228001","0.0-10.0-8.0","288832","","1068","","","","","","","","","","","1","key","1","16.91592187499964","960","250","2","YES"
"","","","","","html-keyboard-response","105","228331","0.0-10.0-9.0","288832","","328","","","","","","","","","","
    <p>How confident are you in your response? Press the corresponding keys from 1 to 5 based on your experience</p>
    <ul id=""confidence-levels"">
      <li id=""conf-1"">1: Not at all confident</li>
      <li id=""conf-2"">2: Slightly confident</li>
      <li id=""conf-3"">3: Somewhat confident</li>
      <li id=""conf-4"">4: Very confident</li>
      <li id=""conf-5"">5: Completely confident</li>
    </ul>","5","","","","","","",""
"","","","","","psychophysics","106","230473","0.0-10.0-10.0","288832","","2127","","","","","","","","","","","0","key","0","16.657875000000104","960","250","1","YES"
"","","","","","html-keyboard-response","107","230900","0.0-10.0-11.0","288832","","426","","","","","","","","","","
    <p>How confident are you in your response? Press the corresponding keys from 1 to 5 based on your experience</p>
    <ul id=""confidence-levels"">
      <li id=""conf-1"">1: Not at all confident</li>
      <li id=""conf-2"">2: Slightly confident</li>
      <li id=""conf-3"">3: Somewhat confident</li>
      <li id=""conf-4"">4: Very confident</li>
      <li id=""conf-5"">5: Completely confident</li>
    </ul>","5","","","","","","",""
"","","","","","psychophysics","108","232435","0.0-10.0-12.0","288832","","1521","","","","","","","","","","","0","key","0","16.654999999999784","960","250","2","YES"
"","","","","","html-keyboard-response","109","232619","0.0-10.0-13.0","288832","","183","","","","","","","","","","
    <p>How confident are you in your response? Press the corresponding keys from 1 to 5 based on your experience</p>
    <ul id=""confidence-levels"">
      <li id=""conf-1"">1: Not at all confident</li>
      <li id=""conf-2"">2: Slightly confident</li>
      <li id=""conf-3"">3: Somewhat confident</li>
      <li id=""conf-4"">4: Very confident</li>
      <li id=""conf-5"">5: Completely confident</li>
    </ul>","5","","","","","","",""
"","","","","","psychophysics","110","233690","0.0-10.0-14.0","288832","","1060","","","","","","","","","","","1","key","1","16.657546875000207","960","250","1","YES"
"","","","","","html-keyboard-response","111","234533","0.0-10.0-15.0","288832","","842","","","","","","","","","","
    <p>How confident are you in your response? Press the corresponding keys from 1 to 5 based on your experience</p>
    <ul id=""confidence-levels"">
      <li id=""conf-1"">1: Not at all confident</li>
      <li id=""conf-2"">2: Slightly confident</li>
      <li id=""conf-3"">3: Somewhat confident</li>
      <li id=""conf-4"">4: Very confident</li>
      <li id=""conf-5"">5: Completely confident</li>
    </ul>","5","","","","","","",""
"","","","","","psychophysics","112","235735","0.0-10.0-16.0","288832","","1188","","","","","","","","","","","2","key","2","16.652555555555914","960","250","2","NO"
"","","","","","html-keyboard-response","113","235947","0.0-10.0-17.0","288832","","211","","","","","","","","","","
    <p>How confident are you in your response? Press the corresponding keys from 1 to 5 based on your experience</p>
    <ul id=""confidence-levels"">
      <li id=""conf-1"">1: Not at all confident</li>
      <li id=""conf-2"">2: Slightly confident</li>
      <li id=""conf-3"">3: Somewhat confident</li>
      <li id=""conf-4"">4: Very confident</li>
      <li id=""conf-5"">5: Completely confident</li>
    </ul>","5","","","","","","",""
"","","","","","psychophysics","114","237121","0.0-10.0-18.0","288832","","1163","","","","","","","","","","","2","key","2","16.65714285714286","960","250","2","NO"
"","","","","","html-keyboard-response","115","237380","0.0-10.0-19.0","288832","","257","","","","","","","","","","
    <p>How confident are you in your response? Press the corresponding keys from 1 to 5 based on your experience</p>
    <ul id=""confidence-levels"">
      <li id=""conf-1"">1: Not at all confident</li>
      <li id=""conf-2"">2: Slightly confident</li>
      <li id=""conf-3"">3: Somewhat confident</li>
      <li id=""conf-4"">4: Very confident</li>
      <li id=""conf-5"">5: Completely confident</li>
    </ul>","5","","","","","","",""
"","","","","","psychophysics","116","238477","0.0-10.0-20.0","288832","","1083","","","","","","","","","","","2","key","2","16.65866666666636","960","250","2","NO"
"","","","","","html-keyboard-response","117","238672","0.0-10.0-21.0","288832","","194","","","","","","","","","","
    <p>How confident are you in your response? Press the corresponding keys from 1 to 5 based on your experience</p>
    <ul id=""confidence-levels"">
      <li id=""conf-1"">1: Not at all confident</li>
      <li id=""conf-2"">2: Slightly confident</li>
      <li id=""conf-3"">3: Somewhat confident</li>
      <li id=""conf-4"">4: Very confident</li>
      <li id=""conf-5"">5: Completely confident</li>
    </ul>","5","","","","","","",""
"","","","","","psychophysics","118","240103","0.0-10.0-22.0","288832","","1420","","","","","","","","","","","0","key","0","16.656564705882236","960","250","1","YES"
"","","","","","html-keyboard-response","119","240255","0.0-10.0-23.0","288832","","150","","","","","","","","","","
    <p>How confident are you in your response? Press the corresponding keys from 1 to 5 based on your experience</p>
    <ul id=""confidence-levels"">
      <li id=""conf-1"">1: Not at all confident</li>
      <li id=""conf-2"">2: Slightly confident</li>
      <li id=""conf-3"">3: Somewhat confident</li>
      <li id=""conf-4"">4: Very confident</li>
      <li id=""conf-5"">5: Completely confident</li>
    </ul>","5","","","","","","",""
"","","","","","psychophysics","120","241649","0.0-10.0-24.0","288832","","1383","","","","","","","","","","","0","key","0","16.657301204819415","960","250","1","YES"
"","","","","","html-keyboard-response","121","241774","0.0-10.0-25.0","288832","","123","","","","","","","","","","
    <p>How confident are you in your response? Press the corresponding keys from 1 to 5 based on your experience</p>
    <ul id=""confidence-levels"">
      <li id=""conf-1"">1: Not at all confident</li>
      <li id=""conf-2"">2: Slightly confident</li>
      <li id=""conf-3"">3: Somewhat confident</li>
      <li id=""conf-4"">4: Very confident</li>
      <li id=""conf-5"">5: Completely confident</li>
    </ul>","5","","","","","","",""
"","","","","","psychophysics","122","243142","0.0-10.0-26.0","288832","","1358","","","","","","","","","","","2","key","2","16.652890243902576","960","250","1","YES"
"","","","","","html-keyboard-response","123","243315","0.0-10.0-27.0","288832","","171","","","","","","","","","","
    <p>How confident are you in your response? Press the corresponding keys from 1 to 5 based on your experience</p>
    <ul id=""confidence-levels"">
      <li id=""conf-1"">1: Not at all confident</li>
      <li id=""conf-2"">2: Slightly confident</li>
      <li id=""conf-3"">3: Somewhat confident</li>
      <li id=""conf-4"">4: Very confident</li>
      <li id=""conf-5"">5: Completely confident</li>
    </ul>","5","","","","","","",""
"","","","","","psychophysics","124","244675","0.0-10.0-28.0","288832","","1348","","","","","","","","","","","1","key","1","16.65646341463399","960","250","2","NO"
"","","","","","html-keyboard-response","125","244851","0.0-10.0-29.0","288832","","173","","","","","","","","","","
    <p>How confident are you in your response? Press the corresponding keys from 1 to 5 based on your experience</p>
    <ul id=""confidence-levels"">
      <li id=""conf-1"">1: Not at all confident</li>
      <li id=""conf-2"">2: Slightly confident</li>
      <li id=""conf-3"">3: Somewhat confident</li>
      <li id=""conf-4"">4: Very confident</li>
      <li id=""conf-5"">5: Completely confident</li>
    </ul>","5","","","","","","",""
"","","","","","psychophysics","126","246195","0.0-10.0-30.0","288832","","1332","","","","","","","","","","","2","key","2","16.65656249999993","960","250","2","NO"
"","","","","","html-keyboard-response","127","246394","0.0-10.0-31.0","288832","","197","","","","","","","","","","
    <p>How confident are you in your response? Press the corresponding keys from 1 to 5 based on your experience</p>
    <ul id=""confidence-levels"">
      <li id=""conf-1"">1: Not at all confident</li>
      <li id=""conf-2"">2: Slightly confident</li>
      <li id=""conf-3"">3: Somewhat confident</li>
      <li id=""conf-4"">4: Very confident</li>
      <li id=""conf-5"">5: Completely confident</li>
    </ul>","5","","","","","","",""
"","","","","","psychophysics","128","247642","0.0-10.0-32.0","288832","","1240","","","","","","","","","","","1","key","1","16.65638666666695","960","250","2","YES"
"","","","","","html-keyboard-response","129","247852","0.0-10.0-33.0","288832","","208","","","","","","","","","","
    <p>How confident are you in your response? Press the corresponding keys from 1 to 5 based on your experience</p>
    <ul id=""confidence-levels"">
      <li id=""conf-1"">1: Not at all confident</li>
      <li id=""conf-2"">2: Slightly confident</li>
      <li id=""conf-3"">3: Somewhat confident</li>
      <li id=""conf-4"">4: Very confident</li>
      <li id=""conf-5"">5: Completely confident</li>
    </ul>","5","","","","","","",""
"","","","","","psychophysics","130","249290","0.0-10.0-34.0","288832","","1427","","","","","","","","","","","2","key","2","16.6581279069766","960","250","2","YES"
"","","","","","html-keyboard-response","131","249504","0.0-10.0-35.0","288832","","213","","","","","","","","","","
    <p>How confident are you in your response? Press the corresponding keys from 1 to 5 based on your experience</p>
    <ul id=""confidence-levels"">
      <li id=""conf-1"">1: Not at all confident</li>
      <li id=""conf-2"">2: Slightly confident</li>
      <li id=""conf-3"">3: Somewhat confident</li>
      <li id=""conf-4"">4: Very confident</li>
      <li id=""conf-5"">5: Completely confident</li>
    </ul>","5","","","","","","",""
"","","","","","psychophysics","132","250690","0.0-10.0-36.0","288832","","1175","","","","","","","","","","","0","key","0","16.655816901408375","960","250","1","YES"
"","","","","","html-keyboard-response","133","250875","0.0-10.0-37.0","288832","","183","","","","","","","","","","
    <p>How confident are you in your response? Press the corresponding keys from 1 to 5 based on your experience</p>
    <ul id=""confidence-levels"">
      <li id=""conf-1"">1: Not at all confident</li>
      <li id=""conf-2"">2: Slightly confident</li>
      <li id=""conf-3"">3: Somewhat confident</li>
      <li id=""conf-4"">4: Very confident</li>
      <li id=""conf-5"">5: Completely confident</li>
    </ul>","5","","","","","","",""
"","","","","","psychophysics","134","252041","0.0-10.0-38.0","288832","","1149","","","","","","","","","","","0","key","0","16.656614285714543","960","250","2","YES"
"","","","","","html-keyboard-response","135","252196","0.0-10.0-39.0","288832","","154","","","","","","","","","","
    <p>How confident are you in your response? Press the corresponding keys from 1 to 5 based on your experience</p>
    <ul id=""confidence-levels"">
      <li id=""conf-1"">1: Not at all confident</li>
      <li id=""conf-2"">2: Slightly confident</li>
      <li id=""conf-3"">3: Somewhat confident</li>
      <li id=""conf-4"">4: Very confident</li>
      <li id=""conf-5"">5: Completely confident</li>
    </ul>","5","","","","","","",""
"","","","","","psychophysics","136","253373","0.0-10.0-40.0","288832","","1168","","","","","","","","","","","2","key","2","16.656414285714188","960","250","2","YES"
"","","","","","html-keyboard-response","137","253550","0.0-10.0-41.0","288832","","176","","","","","","","","","","
    <p>How confident are you in your response? Press the corresponding keys from 1 to 5 based on your experience</p>
    <ul id=""confidence-levels"">
      <li id=""conf-1"">1: Not at all confident</li>
      <li id=""conf-2"">2: Slightly confident</li>
      <li id=""conf-3"">3: Somewhat confident</li>
      <li id=""conf-4"">4: Very confident</li>
      <li id=""conf-5"">5: Completely confident</li>
    </ul>","5","","","","","","",""
"","","","","","psychophysics","138","254836","0.0-10.0-42.0","288832","","1280","","","","","","","","","","","2","key","2","16.658090909090657","960","250","2","NO"
"","","","","","html-keyboard-response","139","255023","0.0-10.0-43.0","288832","","184","","","","","","","","","","
    <p>How confident are you in your response? Press the corresponding keys from 1 to 5 based on your experience</p>
    <ul id=""confidence-levels"">
      <li id=""conf-1"">1: Not at all confident</li>
      <li id=""conf-2"">2: Slightly confident</li>
      <li id=""conf-3"">3: Somewhat confident</li>
      <li id=""conf-4"">4: Very confident</li>
      <li id=""conf-5"">5: Completely confident</li>
    </ul>","5","","","","","","",""
"","","","","","psychophysics","140","256221","0.0-10.0-44.0","288832","","1185","","","","","","","","","","","2","key","2","16.65748611111121","960","250","1","YES"
"","","","","","html-keyboard-response","141","256419","0.0-10.0-45.0","288832","","196","","","","","","","","","","
    <p>How confident are you in your response? Press the corresponding keys from 1 to 5 based on your experience</p>
    <ul id=""confidence-levels"">
      <li id=""conf-1"">1: Not at all confident</li>
      <li id=""conf-2"">2: Slightly confident</li>
      <li id=""conf-3"">3: Somewhat confident</li>
      <li id=""conf-4"">4: Very confident</li>
      <li id=""conf-5"">5: Completely confident</li>
    </ul>","5","","","","","","",""
"","","","","","psychophysics","142","257554","0.0-10.0-46.0","288832","","1122","","","","","","","","","","","2","key","2","16.656970588235282","960","250","2","YES"
"","","","","","html-keyboard-response","143","258132","0.0-10.0-47.0","288832","","576","","","","","","","","","","
    <p>How confident are you in your response? Press the corresponding keys from 1 to 5 based on your experience</p>
    <ul id=""confidence-levels"">
      <li id=""conf-1"">1: Not at all confident</li>
      <li id=""conf-2"">2: Slightly confident</li>
      <li id=""conf-3"">3: Somewhat confident</li>
      <li id=""conf-4"">4: Very confident</li>
      <li id=""conf-5"">5: Completely confident</li>
    </ul>","5","","","","","","",""
"","","","","","psychophysics","144","259473","0.0-10.0-48.0","288832","","1330","","","","","","","","","","","1","key","1","16.653937500000392","960","250","2","YES"
"","","","","","html-keyboard-response","145","259670","0.0-10.0-49.0","288832","","196","","","","","","","","","","
    <p>How confident are you in your response? Press the corresponding keys from 1 to 5 based on your experience</p>
    <ul id=""confidence-levels"">
      <li id=""conf-1"">1: Not at all confident</li>
      <li id=""conf-2"">2: Slightly confident</li>
      <li id=""conf-3"">3: Somewhat confident</li>
      <li id=""conf-4"">4: Very confident</li>
      <li id=""conf-5"">5: Completely confident</li>
    </ul>","5","","","","","","",""
"","","","","","psychophysics","146","260687","0.0-10.0-50.0","288832","","1005","","","","","","","","","","","0","key","0","16.656573770491438","960","250","1","YES"
"","","","","","html-keyboard-response","147","260850","0.0-10.0-51.0","288832","","162","","","","","","","","","","
    <p>How confident are you in your response? Press the corresponding keys from 1 to 5 based on your experience</p>
    <ul id=""confidence-levels"">
      <li id=""conf-1"">1: Not at all confident</li>
      <li id=""conf-2"">2: Slightly confident</li>
      <li id=""conf-3"">3: Somewhat confident</li>
      <li id=""conf-4"">4: Very confident</li>
      <li id=""conf-5"">5: Completely confident</li>
    </ul>","5","","","","","","",""
"","","","","","psychophysics","148","262090","0.0-10.0-52.0","288832","","1228","","","","","","","","","","","2","key","2","16.656324324323922","960","250","2","NO"
"","","","","","html-keyboard-response","149","262328","0.0-10.0-53.0","288832","","236","","","","","","","","","","
    <p>How confident are you in your response? Press the corresponding keys from 1 to 5 based on your experience</p>
    <ul id=""confidence-levels"">
      <li id=""conf-1"">1: Not at all confident</li>
      <li id=""conf-2"">2: Slightly confident</li>
      <li id=""conf-3"">3: Somewhat confident</li>
      <li id=""conf-4"">4: Very confident</li>
      <li id=""conf-5"">5: Completely confident</li>
    </ul>","5","","","","","","",""
"","","","","","psychophysics","150","263638","0.0-10.0-54.0","288832","","1300","","","","","","","","","","","1","key","1","16.652256410256275","960","250","2","YES"
"","","","","","html-keyboard-response","151","263805","0.0-10.0-55.0","288832","","165","","","","","","","","","","
    <p>How confident are you in your response? Press the corresponding keys from 1 to 5 based on your experience</p>
    <ul id=""confidence-levels"">
      <li id=""conf-1"">1: Not at all confident</li>
      <li id=""conf-2"">2: Slightly confident</li>
      <li id=""conf-3"">3: Somewhat confident</li>
      <li id=""conf-4"">4: Very confident</li>
      <li id=""conf-5"">5: Completely confident</li>
    </ul>","5","","","","","","",""
"","","","","","psychophysics","152","264981","0.0-10.0-56.0","288832","","1165","","","","","","","","","","","2","key","2","16.656901408450082","960","250","1","YES"
"","","","","","html-keyboard-response","153","265177","0.0-10.0-57.0","288832","","195","","","","","","","","","","
    <p>How confident are you in your response? Press the corresponding keys from 1 to 5 based on your experience</p>
    <ul id=""confidence-levels"">
      <li id=""conf-1"">1: Not at all confident</li>
      <li id=""conf-2"">2: Slightly confident</li>
      <li id=""conf-3"">3: Somewhat confident</li>
      <li id=""conf-4"">4: Very confident</li>
      <li id=""conf-5"">5: Completely confident</li>
    </ul>","5","","","","","","",""
"","","","","","psychophysics","154","266366","0.0-10.0-58.0","288832","","1178","","","","","","","","","","","2","key","2","16.65680281690102","960","250","2","NO"
"","","","","","html-keyboard-response","155","266589","0.0-10.0-59.0","288832","","222","","","","","","","","","","
    <p>How confident are you in your response? Press the corresponding keys from 1 to 5 based on your experience</p>
    <ul id=""confidence-levels"">
      <li id=""conf-1"">1: Not at all confident</li>
      <li id=""conf-2"">2: Slightly confident</li>
      <li id=""conf-3"">3: Somewhat confident</li>
      <li id=""conf-4"">4: Very confident</li>
      <li id=""conf-5"">5: Completely confident</li>
    </ul>","5","","","","","","",""
"","","","","","psychophysics","156","267663","0.0-10.0-60.0","288832","","1063","","","","","","","","","","","0","key","0","16.656140625000262","960","250","1","YES"
"","","","","","html-keyboard-response","157","267751","0.0-10.0-61.0","288832","","86","","","","","","","","","","
    <p>How confident are you in your response? Press the corresponding keys from 1 to 5 based on your experience</p>
    <ul id=""confidence-levels"">
      <li id=""conf-1"">1: Not at all confident</li>
      <li id=""conf-2"">2: Slightly confident</li>
      <li id=""conf-3"">3: Somewhat confident</li>
      <li id=""conf-4"">4: Very confident</li>
      <li id=""conf-5"">5: Completely confident</li>
    </ul>","5","","","","","","",""
"","","","","","psychophysics","158","268919","0.0-10.0-62.0","288832","","1157","","","","","","","","","","","2","key","2","16.657557142856863","960","250","2","NO"
"","","","","","html-keyboard-response","159","269104","0.0-10.0-63.0","288832","","183","","","","","","","","","","
    <p>How confident are you in your response? Press the corresponding keys from 1 to 5 based on your experience</p>
    <ul id=""confidence-levels"">
      <li id=""conf-1"">1: Not at all confident</li>
      <li id=""conf-2"">2: Slightly confident</li>
      <li id=""conf-3"">3: Somewhat confident</li>
      <li id=""conf-4"">4: Very confident</li>
      <li id=""conf-5"">5: Completely confident</li>
    </ul>","5","","","","","","",""
"","","","","","psychophysics","160","270251","0.0-10.0-64.0","288832","","1134","","","","","","","","","","","2","key","2","16.65672058823539","960","250","2","NO"
"","","","","","html-keyboard-response","161","270357","0.0-10.0-65.0","288832","","104","","","","","","","","","","
    <p>How confident are you in your response? Press the corresponding keys from 1 to 5 based on your experience</p>
    <ul id=""confidence-levels"">
      <li id=""conf-1"">1: Not at all confident</li>
      <li id=""conf-2"">2: Slightly confident</li>
      <li id=""conf-3"">3: Somewhat confident</li>
      <li id=""conf-4"">4: Very confident</li>
      <li id=""conf-5"">5: Completely confident</li>
    </ul>","5","","","","","","",""
"","","","","","psychophysics","162","271778","0.0-10.0-66.0","288832","","1410","","","","","","","","","","","1","key","1","16.657788235293566","960","250","2","YES"
"","","","","","html-keyboard-response","163","272150","0.0-10.0-67.0","288832","","369","","","","","","","","","","
    <p>How confident are you in your response? Press the corresponding keys from 1 to 5 based on your experience</p>
    <ul id=""confidence-levels"">
      <li id=""conf-1"">1: Not at all confident</li>
      <li id=""conf-2"">2: Slightly confident</li>
      <li id=""conf-3"">3: Somewhat confident</li>
      <li id=""conf-4"">4: Very confident</li>
      <li id=""conf-5"">5: Completely confident</li>
    </ul>","5","","","","","","",""
"","","","","","psychophysics","164","273918","0.0-10.0-68.0","288832","","1757","","","","","","","","","","","1","key","1","16.65671698113229","960","250","2","NO"
"","","","","","html-keyboard-response","165","274165","0.0-10.0-69.0","288832","","245","","","","","","","","","","
    <p>How confident are you in your response? Press the corresponding keys from 1 to 5 based on your experience</p>
    <ul id=""confidence-levels"">
      <li id=""conf-1"">1: Not at all confident</li>
      <li id=""conf-2"">2: Slightly confident</li>
      <li id=""conf-3"">3: Somewhat confident</li>
      <li id=""conf-4"">4: Very confident</li>
      <li id=""conf-5"">5: Completely confident</li>
    </ul>","5","","","","","","",""
"","","","","","psychophysics","166","275440","0.0-10.0-70.0","288832","","1262","","","","","","","","","","","2","key","2","16.657000000000473","960","250","2","NO"
"","","","","","html-keyboard-response","167","275657","0.0-10.0-71.0","288832","","215","","","","","","","","","","
    <p>How confident are you in your response? Press the corresponding keys from 1 to 5 based on your experience</p>
    <ul id=""confidence-levels"">
      <li id=""conf-1"">1: Not at all confident</li>
      <li id=""conf-2"">2: Slightly confident</li>
      <li id=""conf-3"">3: Somewhat confident</li>
      <li id=""conf-4"">4: Very confident</li>
      <li id=""conf-5"">5: Completely confident</li>
    </ul>","5","","","","","","",""
"","","","","","psychophysics","168","276725","0.0-10.0-72.0","288832","","1054","","","","","","","","","","","2","key","2","16.656406250000146","960","250","2","YES"
"","","","","","html-keyboard-response","169","276874","0.0-10.0-73.0","288832","","147","","","","","","","","","","
    <p>How confident are you in your response? Press the corresponding keys from 1 to 5 based on your experience</p>
    <ul id=""confidence-levels"">
      <li id=""conf-1"">1: Not at all confident</li>
      <li id=""conf-2"">2: Slightly confident</li>
      <li id=""conf-3"">3: Somewhat confident</li>
      <li id=""conf-4"">4: Very confident</li>
      <li id=""conf-5"">5: Completely confident</li>
    </ul>","5","","","","","","",""
"","","","","","psychophysics","170","278225","0.0-10.0-74.0","288832","","1340","","","","","","","","","","","1","key","1","16.657432098765888","960","250","2","NO"
"","","","","","html-keyboard-response","171","278387","0.0-10.0-75.0","288832","","162","","","","","","","","","","
    <p>How confident are you in your response? Press the corresponding keys from 1 to 5 based on your experience</p>
    <ul id=""confidence-levels"">
      <li id=""conf-1"">1: Not at all confident</li>
      <li id=""conf-2"">2: Slightly confident</li>
      <li id=""conf-3"">3: Somewhat confident</li>
      <li id=""conf-4"">4: Very confident</li>
      <li id=""conf-5"">5: Completely confident</li>
    </ul>","5","","","","","","",""
"","","","","","psychophysics","172","279624","0.0-10.0-76.0","288832","","1226","","","","","","","","","","","1","key","1","16.657135135135487","960","250","2","YES"
"","","","","","html-keyboard-response","173","279756","0.0-10.0-77.0","288832","","131","","","","","","","","","","
    <p>How confident are you in your response? Press the corresponding keys from 1 to 5 based on your experience</p>
    <ul id=""confidence-levels"">
      <li id=""conf-1"">1: Not at all confident</li>
      <li id=""conf-2"">2: Slightly confident</li>
      <li id=""conf-3"">3: Somewhat confident</li>
      <li id=""conf-4"">4: Very confident</li>
      <li id=""conf-5"">5: Completely confident</li>
    </ul>","5","","","","","","",""
"","","","","","html-keyboard-response","174","298342","0.0-11.0","288832","","18584","","","","","","","","","","Your average response time is null ms You are doing great"," ","","","","","","",""
"","","","","","html-button-response","175","360270","0.0-12.0","288832","","61926","","","","","","","","","","<p>You have successfully completed one block of the experiment. The next part of the experiment can be started in <span id=""clock"">1:00</span> <br>You can take a break for a minute or more if you like and Press continue when you are ready","0","","","","","","",""
"","","","","","psychophysics","176","362376","0.0-13.0-0.0","288832","","2093","","","","","","","","","","","1","key","1","16.788992063492067","960","250","1","100"
"","","","","","html-keyboard-response","177","362527","0.0-13.0-1.0","288832","","148","","","","","","","","","","
    <p>How confident are you in your response? Press the corresponding keys from 1 to 5 based on your experience</p>
    <ul id=""confidence-levels"">
      <li id=""conf-1"">1: Not at all confident</li>
      <li id=""conf-2"">2: Slightly confident</li>
      <li id=""conf-3"">3: Somewhat confident</li>
      <li id=""conf-4"">4: Very confident</li>
      <li id=""conf-5"">5: Completely confident</li>
    </ul>","5","","","","","","",""
"","","","","","psychophysics","178","363946","0.0-13.0-2.0","288832","","1408","","","","","","","","","","","0","key","0","16.657070588234895","960","250","1","100"
"","","","","","html-keyboard-response","179","364067","0.0-13.0-3.0","288832","","119","","","","","","","","","","
    <p>How confident are you in your response? Press the corresponding keys from 1 to 5 based on your experience</p>
    <ul id=""confidence-levels"">
      <li id=""conf-1"">1: Not at all confident</li>
      <li id=""conf-2"">2: Slightly confident</li>
      <li id=""conf-3"">3: Somewhat confident</li>
      <li id=""conf-4"">4: Very confident</li>
      <li id=""conf-5"">5: Completely confident</li>
    </ul>","5","","","","","","",""
"","","","","","psychophysics","180","365307","0.0-13.0-4.0","288832","","1230","","","","","","","","","","","2","key","2","16.657319999999988","960","250","1","80"
"","","","","","html-keyboard-response","181","365449","0.0-13.0-5.0","288832","","140","","","","","","","","","","
    <p>How confident are you in your response? Press the corresponding keys from 1 to 5 based on your experience</p>
    <ul id=""confidence-levels"">
      <li id=""conf-1"">1: Not at all confident</li>
      <li id=""conf-2"">2: Slightly confident</li>
      <li id=""conf-3"">3: Somewhat confident</li>
      <li id=""conf-4"">4: Very confident</li>
      <li id=""conf-5"">5: Completely confident</li>
    </ul>","5","","","","","","",""
"","","","","","psychophysics","182","366819","0.0-13.0-6.0","288832","","1360","","","","","","","","","","","1","key","1","16.65641463414635","960","250","1","300"
"","","","","","html-keyboard-response","183","367002","0.0-13.0-7.0","288832","","182","","","","","","","","","","
    <p>How confident are you in your response? Press the corresponding keys from 1 to 5 based on your experience</p>
    <ul id=""confidence-levels"">
      <li id=""conf-1"">1: Not at all confident</li>
      <li id=""conf-2"">2: Slightly confident</li>
      <li id=""conf-3"">3: Somewhat confident</li>
      <li id=""conf-4"">4: Very confident</li>
      <li id=""conf-5"">5: Completely confident</li>
    </ul>","5","","","","","","",""
"","","","","","psychophysics","184","368407","0.0-13.0-8.0","288832","","1394","","","","","","","","","","","1","key","1","16.656214285713975","960","250","1","100"
"","","","","","html-keyboard-response","185","368533","0.0-13.0-9.0","288832","","124","","","","","","","","","","
    <p>How confident are you in your response? Press the corresponding keys from 1 to 5 based on your experience</p>
    <ul id=""confidence-levels"">
      <li id=""conf-1"">1: Not at all confident</li>
      <li id=""conf-2"">2: Slightly confident</li>
      <li id=""conf-3"">3: Somewhat confident</li>
      <li id=""conf-4"">4: Very confident</li>
      <li id=""conf-5"">5: Completely confident</li>
    </ul>","5","","","","","","",""
"","","","","","psychophysics","186","369710","0.0-13.0-10.0","288832","","1167","","","","","","","","","","","2","key","2","16.657214285714353","960","250","1","50"
"","","","","","html-keyboard-response","187","369847","0.0-13.0-11.0","288832","","136","","","","","","","","","","
    <p>How confident are you in your response? Press the corresponding keys from 1 to 5 based on your experience</p>
    <ul id=""confidence-levels"">
      <li id=""conf-1"">1: Not at all confident</li>
      <li id=""conf-2"">2: Slightly confident</li>
      <li id=""conf-3"">3: Somewhat confident</li>
      <li id=""conf-4"">4: Very confident</li>
      <li id=""conf-5"">5: Completely confident</li>
    </ul>","5","","","","","","",""
"","","","","","psychophysics","188","371244","0.0-13.0-12.0","288832","","1387","","","","","","","","","","","1","key","1","16.65657142857145","960","250","1","300"
"","","","","","html-keyboard-response","189","371445","0.0-13.0-13.0","288832","","199","","","","","","","","","","
    <p>How confident are you in your response? Press the corresponding keys from 1 to 5 based on your experience</p>
    <ul id=""confidence-levels"">
      <li id=""conf-1"">1: Not at all confident</li>
      <li id=""conf-2"">2: Slightly confident</li>
      <li id=""conf-3"">3: Somewhat confident</li>
      <li id=""conf-4"">4: Very confident</li>
      <li id=""conf-5"">5: Completely confident</li>
    </ul>","5","","","","","","",""
"","","","","","psychophysics","190","372673","0.0-13.0-14.0","288832","","1219","","","","","","","","","","","1","key","1","16.65602702702745","960","250","1","200"
"","","","","","html-keyboard-response","191","372866","0.0-13.0-15.0","288832","","191","","","","","","","","","","
    <p>How confident are you in your response? Press the corresponding keys from 1 to 5 based on your experience</p>
    <ul id=""confidence-levels"">
      <li id=""conf-1"">1: Not at all confident</li>
      <li id=""conf-2"">2: Slightly confident</li>
      <li id=""conf-3"">3: Somewhat confident</li>
      <li id=""conf-4"">4: Very confident</li>
      <li id=""conf-5"">5: Completely confident</li>
    </ul>","5","","","","","","",""
"","","","","","psychophysics","192","373990","0.0-13.0-16.0","288832","","1114","","","","","","","","","","","2","key","2","16.657507462685913","960","250","1","80"
"","","","","","html-keyboard-response","193","374236","0.0-13.0-17.0","288832","","245","","","","","","","","","","
    <p>How confident are you in your response? Press the corresponding keys from 1 to 5 based on your experience</p>
    <ul id=""confidence-levels"">
      <li id=""conf-1"">1: Not at all confident</li>
      <li id=""conf-2"">2: Slightly confident</li>
      <li id=""conf-3"">3: Somewhat confident</li>
      <li id=""conf-4"">4: Very confident</li>
      <li id=""conf-5"">5: Completely confident</li>
    </ul>","5","","","","","","",""
"","","","","","psychophysics","194","375319","0.0-13.0-18.0","288832","","1071","","","","","","","","","","","0","key","0","16.65609230769243","960","250","1","80"
"","","","","","html-keyboard-response","195","375482","0.0-13.0-19.0","288832","","162","","","","","","","","","","
    <p>How confident are you in your response? Press the corresponding keys from 1 to 5 based on your experience</p>
    <ul id=""confidence-levels"">
      <li id=""conf-1"">1: Not at all confident</li>
      <li id=""conf-2"">2: Slightly confident</li>
      <li id=""conf-3"">3: Somewhat confident</li>
      <li id=""conf-4"">4: Very confident</li>
      <li id=""conf-5"">5: Completely confident</li>
    </ul>","5","","","","","","",""
"","","","","","psychophysics","196","376603","0.0-13.0-20.0","288832","","1110","","","","","","","","","","","2","key","2","16.656880597014904","960","250","1","25"
"","","","","","html-keyboard-response","197","376778","0.0-13.0-21.0","288832","","173","","","","","","","","","","
    <p>How confident are you in your response? Press the corresponding keys from 1 to 5 based on your experience</p>
    <ul id=""confidence-levels"">
      <li id=""conf-1"">1: Not at all confident</li>
      <li id=""conf-2"">2: Slightly confident</li>
      <li id=""conf-3"">3: Somewhat confident</li>
      <li id=""conf-4"">4: Very confident</li>
      <li id=""conf-5"">5: Completely confident</li>
    </ul>","5","","","","","","",""
"","","","","","psychophysics","198","377776","0.0-13.0-22.0","288832","","986","","","","","","","","","","","2","key","2","16.656711864407505","960","250","1","150"
"","","","","","html-keyboard-response","199","377978","0.0-13.0-23.0","288832","","201","","","","","","","","","","
    <p>How confident are you in your response? Press the corresponding keys from 1 to 5 based on your experience</p>
    <ul id=""confidence-levels"">
      <li id=""conf-1"">1: Not at all confident</li>
      <li id=""conf-2"">2: Slightly confident</li>
      <li id=""conf-3"">3: Somewhat confident</li>
      <li id=""conf-4"">4: Very confident</li>
      <li id=""conf-5"">5: Completely confident</li>
    </ul>","5","","","","","","",""
"","","","","","psychophysics","200","379485","0.0-13.0-24.0","288832","","1497","","","","","","","","","","","1","key","1","16.65647777777825","960","250","1","150"
"","","","","","html-keyboard-response","201","379617","0.0-13.0-25.0","288832","","131","","","","","","","","","","
    <p>How confident are you in your response? Press the corresponding keys from 1 to 5 based on your experience</p>
    <ul id=""confidence-levels"">
      <li id=""conf-1"">1: Not at all confident</li>
      <li id=""conf-2"">2: Slightly confident</li>
      <li id=""conf-3"">3: Somewhat confident</li>
      <li id=""conf-4"">4: Very confident</li>
      <li id=""conf-5"">5: Completely confident</li>
    </ul>","5","","","","","","",""
"","","","","","psychophysics","202","381540","0.0-13.0-26.0","288832","","1911","","","","","","","","","","","1","key","1","16.656904347826543","960","250","1","100"
"","","","","","html-keyboard-response","203","381694","0.0-13.0-27.0","288832","","153","","","","","","","","","","
    <p>How confident are you in your response? Press the corresponding keys from 1 to 5 based on your experience</p>
    <ul id=""confidence-levels"">
      <li id=""conf-1"">1: Not at all confident</li>
      <li id=""conf-2"">2: Slightly confident</li>
      <li id=""conf-3"">3: Somewhat confident</li>
      <li id=""conf-4"">4: Very confident</li>
      <li id=""conf-5"">5: Completely confident</li>
    </ul>","5","","","","","","",""
"","","","","","psychophysics","204","383146","0.0-13.0-28.0","288832","","1442","","","","","","","","","","","2","key","2","16.656724137931143","960","250","1","50"
"","","","","","html-keyboard-response","205","383278","0.0-13.0-29.0","288832","","130","","","","","","","","","","
    <p>How confident are you in your response? Press the corresponding keys from 1 to 5 based on your experience</p>
    <ul id=""confidence-levels"">
      <li id=""conf-1"">1: Not at all confident</li>
      <li id=""conf-2"">2: Slightly confident</li>
      <li id=""conf-3"">3: Somewhat confident</li>
      <li id=""conf-4"">4: Very confident</li>
      <li id=""conf-5"">5: Completely confident</li>
    </ul>","5","","","","","","",""
"","","","","","psychophysics","206","384404","0.0-13.0-30.0","288832","","1116","","","","","","","","","","","2","key","2","16.656611940298756","960","250","1","100"
"","","","","","html-keyboard-response","207","384530","0.0-13.0-31.0","288832","","125","","","","","","","","","","
    <p>How confident are you in your response? Press the corresponding keys from 1 to 5 based on your experience</p>
    <ul id=""confidence-levels"">
      <li id=""conf-1"">1: Not at all confident</li>
      <li id=""conf-2"">2: Slightly confident</li>
      <li id=""conf-3"">3: Somewhat confident</li>
      <li id=""conf-4"">4: Very confident</li>
      <li id=""conf-5"">5: Completely confident</li>
    </ul>","5","","","","","","",""
"","","","","","psychophysics","208","385890","0.0-13.0-32.0","288832","","1348","","","","","","","","","","","2","key","2","16.65711111111069","960","250","1","50"
"","","","","","html-keyboard-response","209","386038","0.0-13.0-33.0","288832","","146","","","","","","","","","","
    <p>How confident are you in your response? Press the corresponding keys from 1 to 5 based on your experience</p>
    <ul id=""confidence-levels"">
      <li id=""conf-1"">1: Not at all confident</li>
      <li id=""conf-2"">2: Slightly confident</li>
      <li id=""conf-3"">3: Somewhat confident</li>
      <li id=""conf-4"">4: Very confident</li>
      <li id=""conf-5"">5: Completely confident</li>
    </ul>","5","","","","","","",""
"","","","","","psychophysics","210","387096","0.0-13.0-34.0","288832","","1046","","","","","","","","","","","2","key","2","16.656890625000415","960","250","1","25"
"","","","","","html-keyboard-response","211","387225","0.0-13.0-35.0","288832","","128","","","","","","","","","","
    <p>How confident are you in your response? Press the corresponding keys from 1 to 5 based on your experience</p>
    <ul id=""confidence-levels"">
      <li id=""conf-1"">1: Not at all confident</li>
      <li id=""conf-2"">2: Slightly confident</li>
      <li id=""conf-3"">3: Somewhat confident</li>
      <li id=""conf-4"">4: Very confident</li>
      <li id=""conf-5"">5: Completely confident</li>
    </ul>","5","","","","","","",""
"","","","","","psychophysics","212","388353","0.0-13.0-36.0","288832","","1121","","","","","","","","","","","2","key","2","16.655999999999853","960","250","1","300"
"","","","","","html-keyboard-response","213","388492","0.0-13.0-37.0","288832","","137","","","","","","","","","","
    <p>How confident are you in your response? Press the corresponding keys from 1 to 5 based on your experience</p>
    <ul id=""confidence-levels"">
      <li id=""conf-1"">1: Not at all confident</li>
      <li id=""conf-2"">2: Slightly confident</li>
      <li id=""conf-3"">3: Somewhat confident</li>
      <li id=""conf-4"">4: Very confident</li>
      <li id=""conf-5"">5: Completely confident</li>
    </ul>","5","","","","","","",""
"","","","","","psychophysics","214","389570","0.0-13.0-38.0","288832","","1069","","","","","","","","","","","2","key","2","16.65643749999981","960","250","1","25"
"","","","","","html-keyboard-response","215","389696","0.0-13.0-39.0","288832","","124","","","","","","","","","","
    <p>How confident are you in your response? Press the corresponding keys from 1 to 5 based on your experience</p>
    <ul id=""confidence-levels"">
      <li id=""conf-1"">1: Not at all confident</li>
      <li id=""conf-2"">2: Slightly confident</li>
      <li id=""conf-3"">3: Somewhat confident</li>
      <li id=""conf-4"">4: Very confident</li>
      <li id=""conf-5"">5: Completely confident</li>
    </ul>","5","","","","","","",""
"","","","","","psychophysics","216","390694","0.0-13.0-40.0","288832","","988","","","","","","","","","","","2","key","2","16.65679999999993","960","250","1","200"
"","","","","","html-keyboard-response","217","390866","0.0-13.0-41.0","288832","","170","","","","","","","","","","
    <p>How confident are you in your response? Press the corresponding keys from 1 to 5 based on your experience</p>
    <ul id=""confidence-levels"">
      <li id=""conf-1"">1: Not at all confident</li>
      <li id=""conf-2"">2: Slightly confident</li>
      <li id=""conf-3"">3: Somewhat confident</li>
      <li id=""conf-4"">4: Very confident</li>
      <li id=""conf-5"">5: Completely confident</li>
    </ul>","5","","","","","","",""
"","","","","","psychophysics","218","392076","0.0-13.0-42.0","288832","","1198","","","","","","","","","","","2","key","2","16.65710958904086","960","250","1","150"
"","","","","","html-keyboard-response","219","392262","0.0-13.0-43.0","288832","","185","","","","","","","","","","
    <p>How confident are you in your response? Press the corresponding keys from 1 to 5 based on your experience</p>
    <ul id=""confidence-levels"">
      <li id=""conf-1"">1: Not at all confident</li>
      <li id=""conf-2"">2: Slightly confident</li>
      <li id=""conf-3"">3: Somewhat confident</li>
      <li id=""conf-4"">4: Very confident</li>
      <li id=""conf-5"">5: Completely confident</li>
    </ul>","5","","","","","","",""
"","","","","","psychophysics","220","393525","0.0-13.0-44.0","288832","","1252","","","","","","","","","","","2","key","2","16.657263157894608","960","250","1","50"
"","","","","","html-keyboard-response","221","393683","0.0-13.0-45.0","288832","","156","","","","","","","","","","
    <p>How confident are you in your response? Press the corresponding keys from 1 to 5 based on your experience</p>
    <ul id=""confidence-levels"">
      <li id=""conf-1"">1: Not at all confident</li>
      <li id=""conf-2"">2: Slightly confident</li>
      <li id=""conf-3"">3: Somewhat confident</li>
      <li id=""conf-4"">4: Very confident</li>
      <li id=""conf-5"">5: Completely confident</li>
    </ul>","5","","","","","","",""
"","","","","","psychophysics","222","394815","0.0-13.0-46.0","288832","","1121","","","","","","","","","","","2","key","2","16.65592647058742","960","250","1","50"
"","","","","","html-keyboard-response","223","394974","0.0-13.0-47.0","288832","","157","","","","","","","","","","
    <p>How confident are you in your response? Press the corresponding keys from 1 to 5 based on your experience</p>
    <ul id=""confidence-levels"">
      <li id=""conf-1"">1: Not at all confident</li>
      <li id=""conf-2"">2: Slightly confident</li>
      <li id=""conf-3"">3: Somewhat confident</li>
      <li id=""conf-4"">4: Very confident</li>
      <li id=""conf-5"">5: Completely confident</li>
    </ul>","5","","","","","","",""
"","","","","","psychophysics","224","396008","0.0-13.0-48.0","288832","","1024","","","","","","","","","","","2","key","2","16.655758064516235","960","250","1","25"
"","","","","","html-keyboard-response","225","396161","0.0-13.0-49.0","288832","","152","","","","","","","","","","
    <p>How confident are you in your response? Press the corresponding keys from 1 to 5 based on your experience</p>
    <ul id=""confidence-levels"">
      <li id=""conf-1"">1: Not at all confident</li>
      <li id=""conf-2"">2: Slightly confident</li>
      <li id=""conf-3"">3: Somewhat confident</li>
      <li id=""conf-4"">4: Very confident</li>
      <li id=""conf-5"">5: Completely confident</li>
    </ul>","5","","","","","","",""
"","","","","","psychophysics","226","397288","0.0-13.0-50.0","288832","","1116","","","","","","","","","","","2","key","2","16.65714925373192","960","250","1","80"
"","","","","","html-keyboard-response","227","397440","0.0-13.0-51.0","288832","","149","","","","","","","","","","
    <p>How confident are you in your response? Press the corresponding keys from 1 to 5 based on your experience</p>
    <ul id=""confidence-levels"">
      <li id=""conf-1"">1: Not at all confident</li>
      <li id=""conf-2"">2: Slightly confident</li>
      <li id=""conf-3"">3: Somewhat confident</li>
      <li id=""conf-4"">4: Very confident</li>
      <li id=""conf-5"">5: Completely confident</li>
    </ul>","5","","","","","","",""
"","","","","","psychophysics","228","398539","0.0-13.0-52.0","288832","","1088","","","","","","","","","","","2","key","2","16.657363636363616","960","250","1","50"
"","","","","","html-keyboard-response","229","398698","0.0-13.0-53.0","288832","","158","","","","","","","","","","
    <p>How confident are you in your response? Press the corresponding keys from 1 to 5 based on your experience</p>
    <ul id=""confidence-levels"">
      <li id=""conf-1"">1: Not at all confident</li>
      <li id=""conf-2"">2: Slightly confident</li>
      <li id=""conf-3"">3: Somewhat confident</li>
      <li id=""conf-4"">4: Very confident</li>
      <li id=""conf-5"">5: Completely confident</li>
    </ul>","5","","","","","","",""
"","","","","","psychophysics","230","400091","0.0-13.0-54.0","288832","","1382","","","","","","","","","","","0","key","0","16.65643373493972","960","250","1","80"
"","","","","","html-keyboard-response","231","400252","0.0-13.0-55.0","288832","","161","","","","","","","","","","
    <p>How confident are you in your response? Press the corresponding keys from 1 to 5 based on your experience</p>
    <ul id=""confidence-levels"">
      <li id=""conf-1"">1: Not at all confident</li>
      <li id=""conf-2"">2: Slightly confident</li>
      <li id=""conf-3"">3: Somewhat confident</li>
      <li id=""conf-4"">4: Very confident</li>
      <li id=""conf-5"">5: Completely confident</li>
    </ul>","5","","","","","","",""
"","","","","","psychophysics","232","402095","0.0-13.0-56.0","288832","","1832","","","","","","","","","","","1","key","1","16.65705454545413","960","250","1","80"
"","","","","","html-keyboard-response","233","402374","0.0-13.0-57.0","288832","","278","","","","","","","","","","
    <p>How confident are you in your response? Press the corresponding keys from 1 to 5 based on your experience</p>
    <ul id=""confidence-levels"">
      <li id=""conf-1"">1: Not at all confident</li>
      <li id=""conf-2"">2: Slightly confident</li>
      <li id=""conf-3"">3: Somewhat confident</li>
      <li id=""conf-4"">4: Very confident</li>
      <li id=""conf-5"">5: Completely confident</li>
    </ul>","5","","","","","","",""
"","","","","","psychophysics","234","403795","0.0-13.0-58.0","288832","","1410","","","","","","","","","","","0","key","0","16.654541176470573","960","250","1","150"
"","","","","","html-keyboard-response","235","403947","0.0-13.0-59.0","288832","","150","","","","","","","","","","
    <p>How confident are you in your response? Press the corresponding keys from 1 to 5 based on your experience</p>
    <ul id=""confidence-levels"">
      <li id=""conf-1"">1: Not at all confident</li>
      <li id=""conf-2"">2: Slightly confident</li>
      <li id=""conf-3"">3: Somewhat confident</li>
      <li id=""conf-4"">4: Very confident</li>
      <li id=""conf-5"">5: Completely confident</li>
    </ul>","5","","","","","","",""
"","","","","","psychophysics","236","405452","0.0-13.0-60.0","288832","","1493","","","","","","","","","","","1","key","1","16.656966666666428","960","250","1","150"
"","","","","","html-keyboard-response","237","406101","0.0-13.0-61.0","288832","","646","","","","","","","","","","
    <p>How confident are you in your response? Press the corresponding keys from 1 to 5 based on your experience</p>
    <ul id=""confidence-levels"">
      <li id=""conf-1"">1: Not at all confident</li>
      <li id=""conf-2"">2: Slightly confident</li>
      <li id=""conf-3"">3: Somewhat confident</li>
      <li id=""conf-4"">4: Very confident</li>
      <li id=""conf-5"">5: Completely confident</li>
    </ul>","5","","","","","","",""
"","","","","","psychophysics","238","407409","0.0-13.0-62.0","288832","","1294","","","","","","","","","","","1","key","1","16.654641025641467","960","250","1","200"
"","","","","","html-keyboard-response","239","409520","0.0-13.0-63.0","288832","","2107","","","","","","","","","","
    <p>How confident are you in your response? Press the corresponding keys from 1 to 5 based on your experience</p>
    <ul id=""confidence-levels"">
      <li id=""conf-1"">1: Not at all confident</li>
      <li id=""conf-2"">2: Slightly confident</li>
      <li id=""conf-3"">3: Somewhat confident</li>
      <li id=""conf-4"">4: Very confident</li>
      <li id=""conf-5"">5: Completely confident</li>
    </ul>","1","","","","","","",""
"","","","","","psychophysics","240","410871","0.0-13.0-64.0","288832","","1338","","","","","","","","","","","1","key","1","16.643765432098277","960","250","1","300"
"","","","","","html-keyboard-response","241","411217","0.0-13.0-65.0","288832","","344","","","","","","","","","","
    <p>How confident are you in your response? Press the corresponding keys from 1 to 5 based on your experience</p>
    <ul id=""confidence-levels"">
      <li id=""conf-1"">1: Not at all confident</li>
      <li id=""conf-2"">2: Slightly confident</li>
      <li id=""conf-3"">3: Somewhat confident</li>
      <li id=""conf-4"">4: Very confident</li>
      <li id=""conf-5"">5: Completely confident</li>
    </ul>","5","","","","","","",""
"","","","","","psychophysics","242","412184","0.0-13.0-66.0","288832","","959","","","","","","","","","","","1","key","1","16.65160344827595","960","250","1","100"
"","","","","","html-keyboard-response","243","412374","0.0-13.0-67.0","288832","","188","","","","","","","","","","
    <p>How confident are you in your response? Press the corresponding keys from 1 to 5 based on your experience</p>
    <ul id=""confidence-levels"">
      <li id=""conf-1"">1: Not at all confident</li>
      <li id=""conf-2"">2: Slightly confident</li>
      <li id=""conf-3"">3: Somewhat confident</li>
      <li id=""conf-4"">4: Very confident</li>
      <li id=""conf-5"">5: Completely confident</li>
    </ul>","5","","","","","","",""
"","","","","","psychophysics","244","413434","0.0-13.0-68.0","288832","","1050","","","","","","","","","","","2","key","2","16.65734375000011","960","250","1","25"
"","","","","","html-keyboard-response","245","413550","0.0-13.0-69.0","288832","","115","","","","","","","","","","
    <p>How confident are you in your response? Press the corresponding keys from 1 to 5 based on your experience</p>
    <ul id=""confidence-levels"">
      <li id=""conf-1"">1: Not at all confident</li>
      <li id=""conf-2"">2: Slightly confident</li>
      <li id=""conf-3"">3: Somewhat confident</li>
      <li id=""conf-4"">4: Very confident</li>
      <li id=""conf-5"">5: Completely confident</li>
    </ul>","5","","","","","","",""
"","","","","","psychophysics","246","414507","0.0-13.0-70.0","288832","","946","","","","","","","","","","","2","key","2","16.65771929824545","960","250","1","200"
"","","","","","html-keyboard-response","247","415911","0.0-13.0-71.0","288832","","1402","","","","","","","","","","
    <p>How confident are you in your response? Press the corresponding keys from 1 to 5 based on your experience</p>
    <ul id=""confidence-levels"">
      <li id=""conf-1"">1: Not at all confident</li>
      <li id=""conf-2"">2: Slightly confident</li>
      <li id=""conf-3"">3: Somewhat confident</li>
      <li id=""conf-4"">4: Very confident</li>
      <li id=""conf-5"">5: Completely confident</li>
    </ul>","1","","","","","","",""
"","","","","","psychophysics","248","417211","0.0-13.0-72.0","288832","","1290","","","","","","","","","","","0","key","0","16.648487179487113","960","250","1","300"
"","","","","","html-keyboard-response","249","417348","0.0-13.0-73.0","288832","","135","","","","","","","","","","
    <p>How confident are you in your response? Press the corresponding keys from 1 to 5 based on your experience</p>
    <ul id=""confidence-levels"">
      <li id=""conf-1"">1: Not at all confident</li>
      <li id=""conf-2"">2: Slightly confident</li>
      <li id=""conf-3"">3: Somewhat confident</li>
      <li id=""conf-4"">4: Very confident</li>
      <li id=""conf-5"">5: Completely confident</li>
    </ul>","5","","","","","","",""
"","","","","","psychophysics","250","418724","0.0-13.0-74.0","288832","","1365","","","","","","","","","","","1","key","1","16.657109756097935","960","250","1","50"
"","","","","","html-keyboard-response","251","418860","0.0-13.0-75.0","288832","","135","","","","","","","","","","
    <p>How confident are you in your response? Press the corresponding keys from 1 to 5 based on your experience</p>
    <ul id=""confidence-levels"">
      <li id=""conf-1"">1: Not at all confident</li>
      <li id=""conf-2"">2: Slightly confident</li>
      <li id=""conf-3"">3: Somewhat confident</li>
      <li id=""conf-4"">4: Very confident</li>
      <li id=""conf-5"">5: Completely confident</li>
    </ul>","5","","","","","","",""
"","","","","","psychophysics","252","420467","0.0-13.0-76.0","288832","","1597","","","","","","","","","","","1","key","1","16.657156249999996","960","250","1","300"
"","","","","","html-keyboard-response","253","420671","0.0-13.0-77.0","288832","","203","","","","","","","","","","
    <p>How confident are you in your response? Press the corresponding keys from 1 to 5 based on your experience</p>
    <ul id=""confidence-levels"">
      <li id=""conf-1"">1: Not at all confident</li>
      <li id=""conf-2"">2: Slightly confident</li>
      <li id=""conf-3"">3: Somewhat confident</li>
      <li id=""conf-4"">4: Very confident</li>
      <li id=""conf-5"">5: Completely confident</li>
    </ul>","5","","","","","","",""
"","","","","","psychophysics","254","421818","0.0-13.0-78.0","288832","","1136","","","","","","","","","","","1","key","1","16.655661764706192","960","250","1","100"
"","","","","","html-keyboard-response","255","421949","0.0-13.0-79.0","288832","","130","","","","","","","","","","
    <p>How confident are you in your response? Press the corresponding keys from 1 to 5 based on your experience</p>
    <ul id=""confidence-levels"">
      <li id=""conf-1"">1: Not at all confident</li>
      <li id=""conf-2"">2: Slightly confident</li>
      <li id=""conf-3"">3: Somewhat confident</li>
      <li id=""conf-4"">4: Very confident</li>
      <li id=""conf-5"">5: Completely confident</li>
    </ul>","5","","","","","","",""
"","","","","","psychophysics","256","423197","0.0-13.0-80.0","288832","","1236","","","","","","","","","","","1","key","1","16.656773333332968","960","250","1","25"
"","","","","","html-keyboard-response","257","423485","0.0-13.0-81.0","288832","","287","","","","","","","","","","
    <p>How confident are you in your response? Press the corresponding keys from 1 to 5 based on your experience</p>
    <ul id=""confidence-levels"">
      <li id=""conf-1"">1: Not at all confident</li>
      <li id=""conf-2"">2: Slightly confident</li>
      <li id=""conf-3"">3: Somewhat confident</li>
      <li id=""conf-4"">4: Very confident</li>
      <li id=""conf-5"">5: Completely confident</li>
    </ul>","5","","","","","","",""
"","","","","","psychophysics","258","424847","0.0-13.0-82.0","288832","","1349","","","","","","","","","","","1","key","1","16.656419753086936","960","250","1","200"
"","","","","","html-keyboard-response","259","425044","0.0-13.0-83.0","288832","","195","","","","","","","","","","
    <p>How confident are you in your response? Press the corresponding keys from 1 to 5 based on your experience</p>
    <ul id=""confidence-levels"">
      <li id=""conf-1"">1: Not at all confident</li>
      <li id=""conf-2"">2: Slightly confident</li>
      <li id=""conf-3"">3: Somewhat confident</li>
      <li id=""conf-4"">4: Very confident</li>
      <li id=""conf-5"">5: Completely confident</li>
    </ul>","5","","","","","","",""
"","","","","","psychophysics","260","426593","0.0-13.0-84.0","288832","","1538","","","","","","","","","","","0","key","0","16.656462365591782","960","250","1","200"
"","","","","","html-keyboard-response","261","426772","0.0-13.0-85.0","288832","","177","","","","","","","","","","
    <p>How confident are you in your response? Press the corresponding keys from 1 to 5 based on your experience</p>
    <ul id=""confidence-levels"">
      <li id=""conf-1"">1: Not at all confident</li>
      <li id=""conf-2"">2: Slightly confident</li>
      <li id=""conf-3"">3: Somewhat confident</li>
      <li id=""conf-4"">4: Very confident</li>
      <li id=""conf-5"">5: Completely confident</li>
    </ul>","5","","","","","","",""
"","","","","","psychophysics","262","428060","0.0-13.0-86.0","288832","","1278","","","","","","","","","","","1","key","1","16.656766233766184","960","250","1","200"
"","","","","","html-keyboard-response","263","428181","0.0-13.0-87.0","288832","","119","","","","","","","","","","
    <p>How confident are you in your response? Press the corresponding keys from 1 to 5 based on your experience</p>
    <ul id=""confidence-levels"">
      <li id=""conf-1"">1: Not at all confident</li>
      <li id=""conf-2"">2: Slightly confident</li>
      <li id=""conf-3"">3: Somewhat confident</li>
      <li id=""conf-4"">4: Very confident</li>
      <li id=""conf-5"">5: Completely confident</li>
    </ul>","5","","","","","","",""
"","","","","","psychophysics","264","429662","0.0-13.0-88.0","288832","","1468","","","","","","","","","","","2","key","2","16.65770786516813","960","250","1","80"
"","","","","","html-keyboard-response","265","429827","0.0-13.0-89.0","288832","","165","","","","","","","","","","
    <p>How confident are you in your response? Press the corresponding keys from 1 to 5 based on your experience</p>
    <ul id=""confidence-levels"">
      <li id=""conf-1"">1: Not at all confident</li>
      <li id=""conf-2"">2: Slightly confident</li>
      <li id=""conf-3"">3: Somewhat confident</li>
      <li id=""conf-4"">4: Very confident</li>
      <li id=""conf-5"">5: Completely confident</li>
    </ul>","5","","","","","","",""
"","","","","","psychophysics","266","430945","0.0-13.0-90.0","288832","","1107","","","","","","","","","","","0","key","0","16.656522388060043","960","250","1","150"
"","","","","","html-keyboard-response","267","431077","0.0-13.0-91.0","288832","","131","","","","","","","","","","
    <p>How confident are you in your response? Press the corresponding keys from 1 to 5 based on your experience</p>
    <ul id=""confidence-levels"">
      <li id=""conf-1"">1: Not at all confident</li>
      <li id=""conf-2"">2: Slightly confident</li>
      <li id=""conf-3"">3: Somewhat confident</li>
      <li id=""conf-4"">4: Very confident</li>
      <li id=""conf-5"">5: Completely confident</li>
    </ul>","5","","","","","","",""
"","","","","","psychophysics","268","432424","0.0-13.0-92.0","288832","","1337","","","","","","","","","","","1","key","1","16.657925925925404","960","250","1","300"
"","","","","","html-keyboard-response","269","432545","0.0-13.0-93.0","288832","","120","","","","","","","","","","
    <p>How confident are you in your response? Press the corresponding keys from 1 to 5 based on your experience</p>
    <ul id=""confidence-levels"">
      <li id=""conf-1"">1: Not at all confident</li>
      <li id=""conf-2"">2: Slightly confident</li>
      <li id=""conf-3"">3: Somewhat confident</li>
      <li id=""conf-4"">4: Very confident</li>
      <li id=""conf-5"">5: Completely confident</li>
    </ul>","5","","","","","","",""
"","","","","","psychophysics","270","433857","0.0-13.0-94.0","288832","","1300","","","","","","","","","","","1","key","1","16.65915189873386","960","250","1","150"
"","","","","","html-keyboard-response","271","433957","0.0-13.0-95.0","288832","","99","","","","","","","","","","
    <p>How confident are you in your response? Press the corresponding keys from 1 to 5 based on your experience</p>
    <ul id=""confidence-levels"">
      <li id=""conf-1"">1: Not at all confident</li>
      <li id=""conf-2"">2: Slightly confident</li>
      <li id=""conf-3"">3: Somewhat confident</li>
      <li id=""conf-4"">4: Very confident</li>
      <li id=""conf-5"">5: Completely confident</li>
    </ul>","5","","","","","","",""
"","","","","","psychophysics","272","435143","0.0-13.0-96.0","288832","","1177","","","","","","","","","","","2","key","2","16.656971830986176","960","250","1","25"
"","","","","","html-keyboard-response","273","435347","0.0-13.0-97.0","288832","","203","","","","","","","","","","
    <p>How confident are you in your response? Press the corresponding keys from 1 to 5 based on your experience</p>
    <ul id=""confidence-levels"">
      <li id=""conf-1"">1: Not at all confident</li>
      <li id=""conf-2"">2: Slightly confident</li>
      <li id=""conf-3"">3: Somewhat confident</li>
      <li id=""conf-4"">4: Very confident</li>
      <li id=""conf-5"">5: Completely confident</li>
    </ul>","5","","","","","","",""
"","","","","","html-keyboard-response","274","443849","0.0-14.0","288832","","8501","","","","","","","","","","Your average response time is 759.888 ms You are doing great"," ","","","","","","",""
"","","","","","survey-text","275","556038","0.0-15.0","288832","","112181","","","","","","","","","","","{""EasyToUnderstand"":""yes"",""Suggestions"":""ui could be improved"",""Interface"":""it's good with scope of improvement"",""Perception"":""yes""}","","","","","","",""
"","","","","","html-keyboard-response","276","557653","0.0-16.0","288832","","1614","","","","","","","","","","You have successfully completed all the trials. Thank you for your time. Goodbye :)","meta","","","","","","",""
