"success","timeout","failed_images","failed_audio","failed_video","trial_type","trial_index","time_elapsed","internal_node_id","participant_id","view_history","rt","item_width_mm","item_height_mm","item_width_px","px2mm","view_dist_mm","item_width_deg","px2deg","win_width_deg","win_height_deg","stimulus","response","response_type","key_press","avg_frame_time","center_x","center_y","correct_response"
"true","false","[]","[]","[]","preload","0","7","0.0-0.0","457156","","","","","","","","","","","","","","","","","","",""
"","","","","","instructions","1","5571","0.0-1.0","457156","[{""page_index"":0,""viewing_time"":3587},{""page_index"":1,""viewing_time"":1203},{""page_index"":2,""viewing_time"":772}]","5563","","","","","","","","","","","","","","","","",""
"true","","","","","fullscreen","2","8670","0.0-2.0","457156","","","","","","","","","","","","","","","","","","",""
"","","","","","virtual-chinrest","3","45646","0.0-3.0","457156","","36972","85.6","53.98","386","4.51","1000.23","4.900401530792821","78.76905546912403","18.28129068482296","11.425806678014348","","","","","","","",""
"","","","","","html-keyboard-response","4","47317","0.0-4.0","457156","","1670","","","","","","","","","","This is just trial run, press Space bar to continue"," ","","","","","",""
"","","","","","psychophysics","5","49497","0.0-5.0-0.0","457156","","2174","","","","","","","","","","","0","key","0","16.67006153846154","720","250","0"
"","","","","","psychophysics","6","51597","0.0-5.0-1.0","457156","","2093","","","","","","","","","","","0","key","0","16.666","720","250","0"
"","","","","","psychophysics","7","53162","0.0-5.0-2.0","457156","","1563","","","","","","","","","","","1","key","1","16.66600000000002","720","250","1"
"","","","","","psychophysics","8","54825","0.0-5.0-3.0","457156","","1654","","","","","","","","","","","0","key","0","16.66600000000001","720","250","1"
"","","","","","psychophysics","9","55957","0.0-5.0-4.0","457156","","1129","","","","","","","","","","","1","key","1","16.666000000000047","720","250","1"
"","","","","","psychophysics","10","58204","0.0-5.0-5.0","457156","","2239","","","","","","","","","","","0","key","0","16.66599999999999","720","250","1"
"","","","","","psychophysics","11","59294","0.0-5.0-6.0","457156","","1087","","","","","","","","","","","1","key","1","16.66599999999994","720","250","1"
"","","","","","psychophysics","12","60923","0.0-5.0-7.0","457156","","1623","","","","","","","","","","","0","key","0","16.66599999999999","720","250","1"
"","","","","","html-keyboard-response","13","62256","0.0-6.0","457156","","1332","","","","","","","","","","You have successfully completed the pilot , Press Space bar to continue to main block of experiment"," ","","","","","",""
"","","","","","psychophysics","14","64751","0.0-7.0-0.0","457156","","2490","","","","","","","","","","","1","key","1","16.66599999999996","720","250","1"
"","","","","","html-keyboard-response","15","66097","0.0-7.0-1.0","457156","","1345","","","","","","","","","","
    <p>How confident are you in your response? Press the corresponding keys from 1 to 5 based on your experience</p>
    <ul id=""confidence-levels"">
      <li id=""conf-1"">1: Not at all confident</li>
      <li id=""conf-2"">2: Slightly confident</li>
      <li id=""conf-3"">3: Somewhat confident</li>
      <li id=""conf-4"">4: Very confident</li>
      <li id=""conf-5"">5: Completely confident</li>
    </ul>","5","","","","","",""
"","","","","","psychophysics","16","68089","0.0-7.0-2.0","457156","","1984","","","","","","","","","","","1","key","1","16.67035833333333","720","250","1"
"","","","","","html-keyboard-response","17","68837","0.0-7.0-3.0","457156","","748","","","","","","","","","","
    <p>How confident are you in your response? Press the corresponding keys from 1 to 5 based on your experience</p>
    <ul id=""confidence-levels"">
      <li id=""conf-1"">1: Not at all confident</li>
      <li id=""conf-2"">2: Slightly confident</li>
      <li id=""conf-3"">3: Somewhat confident</li>
      <li id=""conf-4"">4: Very confident</li>
      <li id=""conf-5"">5: Completely confident</li>
    </ul>","5","","","","","",""
"","","","","","psychophysics","18","70436","0.0-7.0-4.0","457156","","1592","","","","","","","","","","","1","key","1","16.666000000000015","720","250","1"
"","","","","","html-keyboard-response","19","70546","0.0-7.0-5.0","457156","","110","","","","","","","","","","
    <p>How confident are you in your response? Press the corresponding keys from 1 to 5 based on your experience</p>
    <ul id=""confidence-levels"">
      <li id=""conf-1"">1: Not at all confident</li>
      <li id=""conf-2"">2: Slightly confident</li>
      <li id=""conf-3"">3: Somewhat confident</li>
      <li id=""conf-4"">4: Very confident</li>
      <li id=""conf-5"">5: Completely confident</li>
    </ul>","5","","","","","",""
"","","","","","psychophysics","20","71565","0.0-7.0-6.0","457156","","1012","","","","","","","","","","","1","key","1","16.666000000000064","720","250","1"
"","","","","","html-keyboard-response","21","71699","0.0-7.0-7.0","457156","","133","","","","","","","","","","
    <p>How confident are you in your response? Press the corresponding keys from 1 to 5 based on your experience</p>
    <ul id=""confidence-levels"">
      <li id=""conf-1"">1: Not at all confident</li>
      <li id=""conf-2"">2: Slightly confident</li>
      <li id=""conf-3"">3: Somewhat confident</li>
      <li id=""conf-4"">4: Very confident</li>
      <li id=""conf-5"">5: Completely confident</li>
    </ul>","5","","","","","",""
"","","","","","psychophysics","22","73295","0.0-7.0-8.0","457156","","1592","","","","","","","","","","","0","key","0","16.665999999999865","720","250","0"
"","","","","","html-keyboard-response","23","73924","0.0-7.0-9.0","457156","","629","","","","","","","","","","
    <p>How confident are you in your response? Press the corresponding keys from 1 to 5 based on your experience</p>
    <ul id=""confidence-levels"">
      <li id=""conf-1"">1: Not at all confident</li>
      <li id=""conf-2"">2: Slightly confident</li>
      <li id=""conf-3"">3: Somewhat confident</li>
      <li id=""conf-4"">4: Very confident</li>
      <li id=""conf-5"">5: Completely confident</li>
    </ul>","5","","","","","",""
"","","","","","psychophysics","24","75198","0.0-7.0-10.0","457156","","1263","","","","","","","","","","","0","key","0","16.66599999999993","720","250","1"
"","","","","","html-keyboard-response","25","75436","0.0-7.0-11.0","457156","","238","","","","","","","","","","
    <p>How confident are you in your response? Press the corresponding keys from 1 to 5 based on your experience</p>
    <ul id=""confidence-levels"">
      <li id=""conf-1"">1: Not at all confident</li>
      <li id=""conf-2"">2: Slightly confident</li>
      <li id=""conf-3"">3: Somewhat confident</li>
      <li id=""conf-4"">4: Very confident</li>
      <li id=""conf-5"">5: Completely confident</li>
    </ul>","5","","","","","",""
"","","","","","psychophysics","26","76387","0.0-7.0-12.0","457156","","947","","","","","","","","","","","0","key","0","16.665999999999993","720","250","1"
"","","","","","html-keyboard-response","27","76546","0.0-7.0-13.0","457156","","159","","","","","","","","","","
    <p>How confident are you in your response? Press the corresponding keys from 1 to 5 based on your experience</p>
    <ul id=""confidence-levels"">
      <li id=""conf-1"">1: Not at all confident</li>
      <li id=""conf-2"">2: Slightly confident</li>
      <li id=""conf-3"">3: Somewhat confident</li>
      <li id=""conf-4"">4: Very confident</li>
      <li id=""conf-5"">5: Completely confident</li>
    </ul>","5","","","","","",""
"","","","","","psychophysics","28","78167","0.0-7.0-14.0","457156","","1613","","","","","","","","","","","1","key","1","16.66599999999999","720","250","1"
"","","","","","html-keyboard-response","29","78323","0.0-7.0-15.0","457156","","155","","","","","","","","","","
    <p>How confident are you in your response? Press the corresponding keys from 1 to 5 based on your experience</p>
    <ul id=""confidence-levels"">
      <li id=""conf-1"">1: Not at all confident</li>
      <li id=""conf-2"">2: Slightly confident</li>
      <li id=""conf-3"">3: Somewhat confident</li>
      <li id=""conf-4"">4: Very confident</li>
      <li id=""conf-5"">5: Completely confident</li>
    </ul>","5","","","","","",""
"","","","","","psychophysics","30","79570","0.0-7.0-16.0","457156","","1243","","","","","","","","","","","2","key","2","16.66599999999996","720","250","1"
"","","","","","html-keyboard-response","31","79707","0.0-7.0-17.0","457156","","136","","","","","","","","","","
    <p>How confident are you in your response? Press the corresponding keys from 1 to 5 based on your experience</p>
    <ul id=""confidence-levels"">
      <li id=""conf-1"">1: Not at all confident</li>
      <li id=""conf-2"">2: Slightly confident</li>
      <li id=""conf-3"">3: Somewhat confident</li>
      <li id=""conf-4"">4: Very confident</li>
      <li id=""conf-5"">5: Completely confident</li>
    </ul>","5","","","","","",""
"","","","","","psychophysics","32","80788","0.0-7.0-18.0","457156","","1073","","","","","","","","","","","1","key","1","16.666000000000125","720","250","1"
"","","","","","html-keyboard-response","33","80929","0.0-7.0-19.0","457156","","140","","","","","","","","","","
    <p>How confident are you in your response? Press the corresponding keys from 1 to 5 based on your experience</p>
    <ul id=""confidence-levels"">
      <li id=""conf-1"">1: Not at all confident</li>
      <li id=""conf-2"">2: Slightly confident</li>
      <li id=""conf-3"">3: Somewhat confident</li>
      <li id=""conf-4"">4: Very confident</li>
      <li id=""conf-5"">5: Completely confident</li>
    </ul>","5","","","","","",""
"","","","","","psychophysics","34","82053","0.0-7.0-20.0","457156","","1120","","","","","","","","","","","2","key","2","16.666000000000007","720","250","1"
"","","","","","html-keyboard-response","35","82196","0.0-7.0-21.0","457156","","142","","","","","","","","","","
    <p>How confident are you in your response? Press the corresponding keys from 1 to 5 based on your experience</p>
    <ul id=""confidence-levels"">
      <li id=""conf-1"">1: Not at all confident</li>
      <li id=""conf-2"">2: Slightly confident</li>
      <li id=""conf-3"">3: Somewhat confident</li>
      <li id=""conf-4"">4: Very confident</li>
      <li id=""conf-5"">5: Completely confident</li>
    </ul>","5","","","","","",""
"","","","","","psychophysics","36","83770","0.0-7.0-22.0","457156","","1565","","","","","","","","","","","0","key","0","16.666000000000043","720","250","1"
"","","","","","html-keyboard-response","37","85053","0.0-7.0-23.0","457156","","1282","","","","","","","","","","
    <p>How confident are you in your response? Press the corresponding keys from 1 to 5 based on your experience</p>
    <ul id=""confidence-levels"">
      <li id=""conf-1"">1: Not at all confident</li>
      <li id=""conf-2"">2: Slightly confident</li>
      <li id=""conf-3"">3: Somewhat confident</li>
      <li id=""conf-4"">4: Very confident</li>
      <li id=""conf-5"">5: Completely confident</li>
    </ul>","5","","","","","",""
"","","","","","psychophysics","38","86361","0.0-7.0-24.0","457156","","1305","","","","","","","","","","","0","key","0","16.665999999999865","720","250","0"
"","","","","","html-keyboard-response","39","86607","0.0-7.0-25.0","457156","","244","","","","","","","","","","
    <p>How confident are you in your response? Press the corresponding keys from 1 to 5 based on your experience</p>
    <ul id=""confidence-levels"">
      <li id=""conf-1"">1: Not at all confident</li>
      <li id=""conf-2"">2: Slightly confident</li>
      <li id=""conf-3"">3: Somewhat confident</li>
      <li id=""conf-4"">4: Very confident</li>
      <li id=""conf-5"">5: Completely confident</li>
    </ul>","5","","","","","",""
"","","","","","psychophysics","40","88231","0.0-7.0-26.0","457156","","1616","","","","","","","","","","","1","key","1","16.67140206185571","720","250","1"
"","","","","","html-keyboard-response","41","88383","0.0-7.0-27.0","457156","","151","","","","","","","","","","
    <p>How confident are you in your response? Press the corresponding keys from 1 to 5 based on your experience</p>
    <ul id=""confidence-levels"">
      <li id=""conf-1"">1: Not at all confident</li>
      <li id=""conf-2"">2: Slightly confident</li>
      <li id=""conf-3"">3: Somewhat confident</li>
      <li id=""conf-4"">4: Very confident</li>
      <li id=""conf-5"">5: Completely confident</li>
    </ul>","5","","","","","",""
"","","","","","psychophysics","42","89710","0.0-7.0-28.0","457156","","1322","","","","","","","","","","","2","key","2","16.665999999999833","720","250","1"
"","","","","","html-keyboard-response","43","89806","0.0-7.0-29.0","457156","","95","","","","","","","","","","
    <p>How confident are you in your response? Press the corresponding keys from 1 to 5 based on your experience</p>
    <ul id=""confidence-levels"">
      <li id=""conf-1"">1: Not at all confident</li>
      <li id=""conf-2"">2: Slightly confident</li>
      <li id=""conf-3"">3: Somewhat confident</li>
      <li id=""conf-4"">4: Very confident</li>
      <li id=""conf-5"">5: Completely confident</li>
    </ul>","5","","","","","",""
"","","","","","psychophysics","44","92202","0.0-7.0-30.0","457156","","2388","","","","","","","","","","","0","key","0","16.666000000000068","720","250","1"
"","","","","","html-keyboard-response","45","92291","0.0-7.0-31.0","457156","","88","","","","","","","","","","
    <p>How confident are you in your response? Press the corresponding keys from 1 to 5 based on your experience</p>
    <ul id=""confidence-levels"">
      <li id=""conf-1"">1: Not at all confident</li>
      <li id=""conf-2"">2: Slightly confident</li>
      <li id=""conf-3"">3: Somewhat confident</li>
      <li id=""conf-4"">4: Very confident</li>
      <li id=""conf-5"">5: Completely confident</li>
    </ul>","5","","","","","",""
"","","","","","psychophysics","46","94115","0.0-7.0-32.0","457156","","1819","","","","","","","","","","","0","key","0","16.665999999999976","720","250","0"
"","","","","","html-keyboard-response","47","94195","0.0-7.0-33.0","457156","","79","","","","","","","","","","
    <p>How confident are you in your response? Press the corresponding keys from 1 to 5 based on your experience</p>
    <ul id=""confidence-levels"">
      <li id=""conf-1"">1: Not at all confident</li>
      <li id=""conf-2"">2: Slightly confident</li>
      <li id=""conf-3"">3: Somewhat confident</li>
      <li id=""conf-4"">4: Very confident</li>
      <li id=""conf-5"">5: Completely confident</li>
    </ul>","5","","","","","",""
"","","","","","psychophysics","48","96257","0.0-7.0-34.0","457156","","2053","","","","","","","","","","","2","key","2","16.66600000000002","720","250","1"
"","","","","","html-keyboard-response","49","96343","0.0-7.0-35.0","457156","","85","","","","","","","","","","
    <p>How confident are you in your response? Press the corresponding keys from 1 to 5 based on your experience</p>
    <ul id=""confidence-levels"">
      <li id=""conf-1"">1: Not at all confident</li>
      <li id=""conf-2"">2: Slightly confident</li>
      <li id=""conf-3"">3: Somewhat confident</li>
      <li id=""conf-4"">4: Very confident</li>
      <li id=""conf-5"">5: Completely confident</li>
    </ul>","5","","","","","",""
"","","","","","psychophysics","50","97844","0.0-7.0-36.0","457156","","1497","","","","","","","","","","","0","key","0","16.666000000000025","720","250","0"
"","","","","","html-keyboard-response","51","97936","0.0-7.0-37.0","457156","","92","","","","","","","","","","
    <p>How confident are you in your response? Press the corresponding keys from 1 to 5 based on your experience</p>
    <ul id=""confidence-levels"">
      <li id=""conf-1"">1: Not at all confident</li>
      <li id=""conf-2"">2: Slightly confident</li>
      <li id=""conf-3"">3: Somewhat confident</li>
      <li id=""conf-4"">4: Very confident</li>
      <li id=""conf-5"">5: Completely confident</li>
    </ul>","5","","","","","",""
"","","","","","psychophysics","52","99473","0.0-7.0-38.0","457156","","1529","","","","","","","","","","","0","key","0","16.66600000000013","720","250","1"
"","","","","","html-keyboard-response","53","99571","0.0-7.0-39.0","457156","","97","","","","","","","","","","
    <p>How confident are you in your response? Press the corresponding keys from 1 to 5 based on your experience</p>
    <ul id=""confidence-levels"">
      <li id=""conf-1"">1: Not at all confident</li>
      <li id=""conf-2"">2: Slightly confident</li>
      <li id=""conf-3"">3: Somewhat confident</li>
      <li id=""conf-4"">4: Very confident</li>
      <li id=""conf-5"">5: Completely confident</li>
    </ul>","5","","","","","",""
"","","","","","psychophysics","54","101126","0.0-7.0-40.0","457156","","1550","","","","","","","","","","","0","key","0","16.665999999999944","720","250","1"
"","","","","","html-keyboard-response","55","101205","0.0-7.0-41.0","457156","","78","","","","","","","","","","
    <p>How confident are you in your response? Press the corresponding keys from 1 to 5 based on your experience</p>
    <ul id=""confidence-levels"">
      <li id=""conf-1"">1: Not at all confident</li>
      <li id=""conf-2"">2: Slightly confident</li>
      <li id=""conf-3"">3: Somewhat confident</li>
      <li id=""conf-4"">4: Very confident</li>
      <li id=""conf-5"">5: Completely confident</li>
    </ul>","5","","","","","",""
"","","","","","psychophysics","56","102238","0.0-7.0-42.0","457156","","1024","","","","","","","","","","","0","key","0","16.66600000000002","720","250","0"
"","","","","","html-keyboard-response","57","102330","0.0-7.0-43.0","457156","","91","","","","","","","","","","
    <p>How confident are you in your response? Press the corresponding keys from 1 to 5 based on your experience</p>
    <ul id=""confidence-levels"">
      <li id=""conf-1"">1: Not at all confident</li>
      <li id=""conf-2"">2: Slightly confident</li>
      <li id=""conf-3"">3: Somewhat confident</li>
      <li id=""conf-4"">4: Very confident</li>
      <li id=""conf-5"">5: Completely confident</li>
    </ul>","5","","","","","",""
"","","","","","psychophysics","58","103161","0.0-7.0-44.0","457156","","827","","","","","","","","","","","0","key","0","16.665999999999766","720","250","1"
"","","","","","html-keyboard-response","59","103252","0.0-7.0-45.0","457156","","90","","","","","","","","","","
    <p>How confident are you in your response? Press the corresponding keys from 1 to 5 based on your experience</p>
    <ul id=""confidence-levels"">
      <li id=""conf-1"">1: Not at all confident</li>
      <li id=""conf-2"">2: Slightly confident</li>
      <li id=""conf-3"">3: Somewhat confident</li>
      <li id=""conf-4"">4: Very confident</li>
      <li id=""conf-5"">5: Completely confident</li>
    </ul>","5","","","","","",""
"","","","","","psychophysics","60","104069","0.0-7.0-46.0","457156","","809","","","","","","","","","","","0","key","0","16.665999999999816","720","250","0"
"","","","","","html-keyboard-response","61","104151","0.0-7.0-47.0","457156","","81","","","","","","","","","","
    <p>How confident are you in your response? Press the corresponding keys from 1 to 5 based on your experience</p>
    <ul id=""confidence-levels"">
      <li id=""conf-1"">1: Not at all confident</li>
      <li id=""conf-2"">2: Slightly confident</li>
      <li id=""conf-3"">3: Somewhat confident</li>
      <li id=""conf-4"">4: Very confident</li>
      <li id=""conf-5"">5: Completely confident</li>
    </ul>","5","","","","","",""
"","","","","","psychophysics","62","105789","0.0-7.0-48.0","457156","","1633","","","","","","","","","","","1","key","1","16.665999999999965","720","250","1"
"","","","","","html-keyboard-response","63","105939","0.0-7.0-49.0","457156","","150","","","","","","","","","","
    <p>How confident are you in your response? Press the corresponding keys from 1 to 5 based on your experience</p>
    <ul id=""confidence-levels"">
      <li id=""conf-1"">1: Not at all confident</li>
      <li id=""conf-2"">2: Slightly confident</li>
      <li id=""conf-3"">3: Somewhat confident</li>
      <li id=""conf-4"">4: Very confident</li>
      <li id=""conf-5"">5: Completely confident</li>
    </ul>","5","","","","","",""
"","","","","","psychophysics","64","108322","0.0-7.0-50.0","457156","","2375","","","","","","","","","","","0","key","0","16.669664335664354","720","250","1"
"","","","","","html-keyboard-response","65","108609","0.0-7.0-51.0","457156","","286","","","","","","","","","","
    <p>How confident are you in your response? Press the corresponding keys from 1 to 5 based on your experience</p>
    <ul id=""confidence-levels"">
      <li id=""conf-1"">1: Not at all confident</li>
      <li id=""conf-2"">2: Slightly confident</li>
      <li id=""conf-3"">3: Somewhat confident</li>
      <li id=""conf-4"">4: Very confident</li>
      <li id=""conf-5"">5: Completely confident</li>
    </ul>","5","","","","","",""
"","","","","","psychophysics","66","109871","0.0-7.0-52.0","457156","","1257","","","","","","","","","","","0","key","0","16.66599999999993","720","250","0"
"","","","","","html-keyboard-response","67","109974","0.0-7.0-53.0","457156","","102","","","","","","","","","","
    <p>How confident are you in your response? Press the corresponding keys from 1 to 5 based on your experience</p>
    <ul id=""confidence-levels"">
      <li id=""conf-1"">1: Not at all confident</li>
      <li id=""conf-2"">2: Slightly confident</li>
      <li id=""conf-3"">3: Somewhat confident</li>
      <li id=""conf-4"">4: Very confident</li>
      <li id=""conf-5"">5: Completely confident</li>
    </ul>","5","","","","","",""
"","","","","","psychophysics","68","111147","0.0-7.0-54.0","457156","","1164","","","","","","","","","","","0","key","0","16.665999999999933","720","250","0"
"","","","","","html-keyboard-response","69","111293","0.0-7.0-55.0","457156","","145","","","","","","","","","","
    <p>How confident are you in your response? Press the corresponding keys from 1 to 5 based on your experience</p>
    <ul id=""confidence-levels"">
      <li id=""conf-1"">1: Not at all confident</li>
      <li id=""conf-2"">2: Slightly confident</li>
      <li id=""conf-3"">3: Somewhat confident</li>
      <li id=""conf-4"">4: Very confident</li>
      <li id=""conf-5"">5: Completely confident</li>
    </ul>","5","","","","","",""
"","","","","","psychophysics","70","112776","0.0-7.0-56.0","457156","","1480","","","","","","","","","","","1","key","1","16.666000000000054","720","250","1"
"","","","","","html-keyboard-response","71","112865","0.0-7.0-57.0","457156","","88","","","","","","","","","","
    <p>How confident are you in your response? Press the corresponding keys from 1 to 5 based on your experience</p>
    <ul id=""confidence-levels"">
      <li id=""conf-1"">1: Not at all confident</li>
      <li id=""conf-2"">2: Slightly confident</li>
      <li id=""conf-3"">3: Somewhat confident</li>
      <li id=""conf-4"">4: Very confident</li>
      <li id=""conf-5"">5: Completely confident</li>
    </ul>","5","","","","","",""
"","","","","","psychophysics","72","114229","0.0-7.0-58.0","457156","","1356","","","","","","","","","","","1","key","1","16.665999999999954","720","250","1"
"","","","","","html-keyboard-response","73","114427","0.0-7.0-59.0","457156","","197","","","","","","","","","","
    <p>How confident are you in your response? Press the corresponding keys from 1 to 5 based on your experience</p>
    <ul id=""confidence-levels"">
      <li id=""conf-1"">1: Not at all confident</li>
      <li id=""conf-2"">2: Slightly confident</li>
      <li id=""conf-3"">3: Somewhat confident</li>
      <li id=""conf-4"">4: Very confident</li>
      <li id=""conf-5"">5: Completely confident</li>
    </ul>","5","","","","","",""
"","","","","","psychophysics","74","115372","0.0-7.0-60.0","457156","","941","","","","","","","","","","","1","key","1","16.665999999999993","720","250","1"
"","","","","","html-keyboard-response","75","115488","0.0-7.0-61.0","457156","","116","","","","","","","","","","
    <p>How confident are you in your response? Press the corresponding keys from 1 to 5 based on your experience</p>
    <ul id=""confidence-levels"">
      <li id=""conf-1"">1: Not at all confident</li>
      <li id=""conf-2"">2: Slightly confident</li>
      <li id=""conf-3"">3: Somewhat confident</li>
      <li id=""conf-4"">4: Very confident</li>
      <li id=""conf-5"">5: Completely confident</li>
    </ul>","5","","","","","",""
"","","","","","psychophysics","76","116793","0.0-7.0-62.0","457156","","1295","","","","","","","","","","","2","key","2","16.66600000000005","720","250","1"
"","","","","","html-keyboard-response","77","116901","0.0-7.0-63.0","457156","","107","","","","","","","","","","
    <p>How confident are you in your response? Press the corresponding keys from 1 to 5 based on your experience</p>
    <ul id=""confidence-levels"">
      <li id=""conf-1"">1: Not at all confident</li>
      <li id=""conf-2"">2: Slightly confident</li>
      <li id=""conf-3"">3: Somewhat confident</li>
      <li id=""conf-4"">4: Very confident</li>
      <li id=""conf-5"">5: Completely confident</li>
    </ul>","5","","","","","",""
"","","","","","psychophysics","78","117982","0.0-7.0-64.0","457156","","1077","","","","","","","","","","","1","key","1","16.666000000000167","720","250","1"
"","","","","","html-keyboard-response","79","118075","0.0-7.0-65.0","457156","","92","","","","","","","","","","
    <p>How confident are you in your response? Press the corresponding keys from 1 to 5 based on your experience</p>
    <ul id=""confidence-levels"">
      <li id=""conf-1"">1: Not at all confident</li>
      <li id=""conf-2"">2: Slightly confident</li>
      <li id=""conf-3"">3: Somewhat confident</li>
      <li id=""conf-4"">4: Very confident</li>
      <li id=""conf-5"">5: Completely confident</li>
    </ul>","5","","","","","",""
"","","","","","psychophysics","80","119163","0.0-7.0-66.0","457156","","1079","","","","","","","","","","","1","key","1","16.6659999999999","720","250","1"
"","","","","","html-keyboard-response","81","119654","0.0-7.0-67.0","457156","","491","","","","","","","","","","
    <p>How confident are you in your response? Press the corresponding keys from 1 to 5 based on your experience</p>
    <ul id=""confidence-levels"">
      <li id=""conf-1"">1: Not at all confident</li>
      <li id=""conf-2"">2: Slightly confident</li>
      <li id=""conf-3"">3: Somewhat confident</li>
      <li id=""conf-4"">4: Very confident</li>
      <li id=""conf-5"">5: Completely confident</li>
    </ul>","5","","","","","",""
"","","","","","psychophysics","82","120586","0.0-7.0-68.0","457156","","927","","","","","","","","","","","1","key","1","16.666000000000036","720","250","1"
"","","","","","html-keyboard-response","83","120674","0.0-7.0-69.0","457156","","87","","","","","","","","","","
    <p>How confident are you in your response? Press the corresponding keys from 1 to 5 based on your experience</p>
    <ul id=""confidence-levels"">
      <li id=""conf-1"">1: Not at all confident</li>
      <li id=""conf-2"">2: Slightly confident</li>
      <li id=""conf-3"">3: Somewhat confident</li>
      <li id=""conf-4"">4: Very confident</li>
      <li id=""conf-5"">5: Completely confident</li>
    </ul>","5","","","","","",""
"","","","","","psychophysics","84","122544","0.0-7.0-70.0","457156","","1862","","","","","","","","","","","0","key","0","16.666000000000036","720","250","0"
"","","","","","html-keyboard-response","85","122596","0.0-7.0-71.0","457156","","52","","","","","","","","","","
    <p>How confident are you in your response? Press the corresponding keys from 1 to 5 based on your experience</p>
    <ul id=""confidence-levels"">
      <li id=""conf-1"">1: Not at all confident</li>
      <li id=""conf-2"">2: Slightly confident</li>
      <li id=""conf-3"">3: Somewhat confident</li>
      <li id=""conf-4"">4: Very confident</li>
      <li id=""conf-5"">5: Completely confident</li>
    </ul>","5","","","","","",""
"","","","","","psychophysics","86","124239","0.0-7.0-72.0","457156","","1639","","","","","","","","","","","2","key","2","16.666000000000086","720","250","1"
"","","","","","html-keyboard-response","87","124340","0.0-7.0-73.0","457156","","100","","","","","","","","","","
    <p>How confident are you in your response? Press the corresponding keys from 1 to 5 based on your experience</p>
    <ul id=""confidence-levels"">
      <li id=""conf-1"">1: Not at all confident</li>
      <li id=""conf-2"">2: Slightly confident</li>
      <li id=""conf-3"">3: Somewhat confident</li>
      <li id=""conf-4"">4: Very confident</li>
      <li id=""conf-5"">5: Completely confident</li>
    </ul>","5","","","","","",""
"","","","","","psychophysics","88","126461","0.0-7.0-74.0","457156","","2113","","","","","","","","","","","0","key","0","16.66599999999996","720","250","0"
"","","","","","html-keyboard-response","89","126546","0.0-7.0-75.0","457156","","84","","","","","","","","","","
    <p>How confident are you in your response? Press the corresponding keys from 1 to 5 based on your experience</p>
    <ul id=""confidence-levels"">
      <li id=""conf-1"">1: Not at all confident</li>
      <li id=""conf-2"">2: Slightly confident</li>
      <li id=""conf-3"">3: Somewhat confident</li>
      <li id=""conf-4"">4: Very confident</li>
      <li id=""conf-5"">5: Completely confident</li>
    </ul>","5","","","","","",""
"","","","","","psychophysics","90","127899","0.0-7.0-76.0","457156","","1349","","","","","","","","","","","1","key","1","16.672469135802483","720","250","1"
"","","","","","html-keyboard-response","91","127991","0.0-7.0-77.0","457156","","91","","","","","","","","","","
    <p>How confident are you in your response? Press the corresponding keys from 1 to 5 based on your experience</p>
    <ul id=""confidence-levels"">
      <li id=""conf-1"">1: Not at all confident</li>
      <li id=""conf-2"">2: Slightly confident</li>
      <li id=""conf-3"">3: Somewhat confident</li>
      <li id=""conf-4"">4: Very confident</li>
      <li id=""conf-5"">5: Completely confident</li>
    </ul>","5","","","","","",""
"","","","","","psychophysics","92","129787","0.0-7.0-78.0","457156","","1788","","","","","","","","","","","1","key","1","16.666","720","250","1"
"","","","","","html-keyboard-response","93","130519","0.0-7.0-79.0","457156","","731","","","","","","","","","","
    <p>How confident are you in your response? Press the corresponding keys from 1 to 5 based on your experience</p>
    <ul id=""confidence-levels"">
      <li id=""conf-1"">1: Not at all confident</li>
      <li id=""conf-2"">2: Slightly confident</li>
      <li id=""conf-3"">3: Somewhat confident</li>
      <li id=""conf-4"">4: Very confident</li>
      <li id=""conf-5"">5: Completely confident</li>
    </ul>","5","","","","","",""
"","","","","","html-keyboard-response","94","132939","0.0-8.0","457156","","2419","","","","","","","","","","Your average response time is  1287.138 ms You are doing great"," ","","","","","",""
"","","","","","html-button-response","95","214351","0.0-9.0","457156","","81411","","","","","","","","","","<p>You have successfully completed one block of the experiment. The next part of the experiment can be started in <span id=""clock"">1:00</span> <br>You can take a break for a minute or more if you like and Press continue when you are ready","0","","","","","",""
"","","","","","psychophysics","96","216313","0.0-10.0-0.0","457156","","1956","","","","","","","","","","","2","key","2","16.665999999999926","720","250","2"
"","","","","","html-keyboard-response","97","216428","0.0-10.0-1.0","457156","","114","","","","","","","","","","
    <p>How confident are you in your response? Press the corresponding keys from 1 to 5 based on your experience</p>
    <ul id=""confidence-levels"">
      <li id=""conf-1"">1: Not at all confident</li>
      <li id=""conf-2"">2: Slightly confident</li>
      <li id=""conf-3"">3: Somewhat confident</li>
      <li id=""conf-4"">4: Very confident</li>
      <li id=""conf-5"">5: Completely confident</li>
    </ul>","5","","","","","",""
"","","","","","psychophysics","98","217456","0.0-10.0-2.0","457156","","1018","","","","","","","","","","","2","key","2","16.666000000000256","720","250","2"
"","","","","","html-keyboard-response","99","217547","0.0-10.0-3.0","457156","","90","","","","","","","","","","
    <p>How confident are you in your response? Press the corresponding keys from 1 to 5 based on your experience</p>
    <ul id=""confidence-levels"">
      <li id=""conf-1"">1: Not at all confident</li>
      <li id=""conf-2"">2: Slightly confident</li>
      <li id=""conf-3"">3: Somewhat confident</li>
      <li id=""conf-4"">4: Very confident</li>
      <li id=""conf-5"">5: Completely confident</li>
    </ul>","5","","","","","",""
"","","","","","psychophysics","100","219210","0.0-10.0-4.0","457156","","1660","","","","","","","","","","","0","key","0","16.666000000000086","720","250","1"
"","","","","","html-keyboard-response","101","219333","0.0-10.0-5.0","457156","","122","","","","","","","","","","
    <p>How confident are you in your response? Press the corresponding keys from 1 to 5 based on your experience</p>
    <ul id=""confidence-levels"">
      <li id=""conf-1"">1: Not at all confident</li>
      <li id=""conf-2"">2: Slightly confident</li>
      <li id=""conf-3"">3: Somewhat confident</li>
      <li id=""conf-4"">4: Very confident</li>
      <li id=""conf-5"">5: Completely confident</li>
    </ul>","5","","","","","",""
"","","","","","psychophysics","102","220773","0.0-10.0-6.0","457156","","1432","","","","","","","","","","","1","key","1","16.666000000000146","720","250","1"
"","","","","","html-keyboard-response","103","220849","0.0-10.0-7.0","457156","","75","","","","","","","","","","
    <p>How confident are you in your response? Press the corresponding keys from 1 to 5 based on your experience</p>
    <ul id=""confidence-levels"">
      <li id=""conf-1"">1: Not at all confident</li>
      <li id=""conf-2"">2: Slightly confident</li>
      <li id=""conf-3"">3: Somewhat confident</li>
      <li id=""conf-4"">4: Very confident</li>
      <li id=""conf-5"">5: Completely confident</li>
    </ul>","5","","","","","",""
"","","","","","psychophysics","104","222080","0.0-10.0-8.0","457156","","1227","","","","","","","","","","","2","key","2","16.665999999999798","720","250","2"
"","","","","","html-keyboard-response","105","222203","0.0-10.0-9.0","457156","","122","","","","","","","","","","
    <p>How confident are you in your response? Press the corresponding keys from 1 to 5 based on your experience</p>
    <ul id=""confidence-levels"">
      <li id=""conf-1"">1: Not at all confident</li>
      <li id=""conf-2"">2: Slightly confident</li>
      <li id=""conf-3"">3: Somewhat confident</li>
      <li id=""conf-4"">4: Very confident</li>
      <li id=""conf-5"">5: Completely confident</li>
    </ul>","5","","","","","",""
"","","","","","psychophysics","106","223386","0.0-10.0-10.0","457156","","1173","","","","","","","","","","","1","key","1","16.665999999999897","720","250","2"
"","","","","","html-keyboard-response","107","223493","0.0-10.0-11.0","457156","","107","","","","","","","","","","
    <p>How confident are you in your response? Press the corresponding keys from 1 to 5 based on your experience</p>
    <ul id=""confidence-levels"">
      <li id=""conf-1"">1: Not at all confident</li>
      <li id=""conf-2"">2: Slightly confident</li>
      <li id=""conf-3"">3: Somewhat confident</li>
      <li id=""conf-4"">4: Very confident</li>
      <li id=""conf-5"">5: Completely confident</li>
    </ul>","5","","","","","",""
"","","","","","psychophysics","108","224509","0.0-10.0-12.0","457156","","1012","","","","","","","","","","","1","key","1","16.666000000000302","720","250","2"
"","","","","","html-keyboard-response","109","224612","0.0-10.0-13.0","457156","","103","","","","","","","","","","
    <p>How confident are you in your response? Press the corresponding keys from 1 to 5 based on your experience</p>
    <ul id=""confidence-levels"">
      <li id=""conf-1"">1: Not at all confident</li>
      <li id=""conf-2"">2: Slightly confident</li>
      <li id=""conf-3"">3: Somewhat confident</li>
      <li id=""conf-4"">4: Very confident</li>
      <li id=""conf-5"">5: Completely confident</li>
    </ul>","5","","","","","",""
"","","","","","psychophysics","110","225605","0.0-10.0-14.0","457156","","985","","","","","","","","","","","1","key","1","16.6660000000004","720","250","2"
"","","","","","html-keyboard-response","111","225714","0.0-10.0-15.0","457156","","108","","","","","","","","","","
    <p>How confident are you in your response? Press the corresponding keys from 1 to 5 based on your experience</p>
    <ul id=""confidence-levels"">
      <li id=""conf-1"">1: Not at all confident</li>
      <li id=""conf-2"">2: Slightly confident</li>
      <li id=""conf-3"">3: Somewhat confident</li>
      <li id=""conf-4"">4: Very confident</li>
      <li id=""conf-5"">5: Completely confident</li>
    </ul>","5","","","","","",""
"","","","","","psychophysics","112","226763","0.0-10.0-16.0","457156","","1045","","","","","","","","","","","2","key","2","16.666000000000256","720","250","2"
"","","","","","html-keyboard-response","113","226871","0.0-10.0-17.0","457156","","107","","","","","","","","","","
    <p>How confident are you in your response? Press the corresponding keys from 1 to 5 based on your experience</p>
    <ul id=""confidence-levels"">
      <li id=""conf-1"">1: Not at all confident</li>
      <li id=""conf-2"">2: Slightly confident</li>
      <li id=""conf-3"">3: Somewhat confident</li>
      <li id=""conf-4"">4: Very confident</li>
      <li id=""conf-5"">5: Completely confident</li>
    </ul>","5","","","","","",""
"","","","","","psychophysics","114","227968","0.0-10.0-18.0","457156","","1090","","","","","","","","","","","1","key","1","16.666000000000086","720","250","2"
"","","","","","html-keyboard-response","115","228076","0.0-10.0-19.0","457156","","107","","","","","","","","","","
    <p>How confident are you in your response? Press the corresponding keys from 1 to 5 based on your experience</p>
    <ul id=""confidence-levels"">
      <li id=""conf-1"">1: Not at all confident</li>
      <li id=""conf-2"">2: Slightly confident</li>
      <li id=""conf-3"">3: Somewhat confident</li>
      <li id=""conf-4"">4: Very confident</li>
      <li id=""conf-5"">5: Completely confident</li>
    </ul>","5","","","","","",""
"","","","","","psychophysics","116","229104","0.0-10.0-20.0","457156","","1023","","","","","","","","","","","1","key","1","16.665999999999787","720","250","2"
"","","","","","html-keyboard-response","117","229197","0.0-10.0-21.0","457156","","93","","","","","","","","","","
    <p>How confident are you in your response? Press the corresponding keys from 1 to 5 based on your experience</p>
    <ul id=""confidence-levels"">
      <li id=""conf-1"">1: Not at all confident</li>
      <li id=""conf-2"">2: Slightly confident</li>
      <li id=""conf-3"">3: Somewhat confident</li>
      <li id=""conf-4"">4: Very confident</li>
      <li id=""conf-5"">5: Completely confident</li>
    </ul>","5","","","","","",""
"","","","","","psychophysics","118","230453","0.0-10.0-22.0","457156","","1247","","","","","","","","","","","1","key","1","16.665999999999766","720","250","2"
"","","","","","html-keyboard-response","119","230542","0.0-10.0-23.0","457156","","88","","","","","","","","","","
    <p>How confident are you in your response? Press the corresponding keys from 1 to 5 based on your experience</p>
    <ul id=""confidence-levels"">
      <li id=""conf-1"">1: Not at all confident</li>
      <li id=""conf-2"">2: Slightly confident</li>
      <li id=""conf-3"">3: Somewhat confident</li>
      <li id=""conf-4"">4: Very confident</li>
      <li id=""conf-5"">5: Completely confident</li>
    </ul>","5","","","","","",""
"","","","","","psychophysics","120","231568","0.0-10.0-24.0","457156","","1022","","","","","","","","","","","2","key","2","16.665999999999787","720","250","2"
"","","","","","html-keyboard-response","121","231636","0.0-10.0-25.0","457156","","67","","","","","","","","","","
    <p>How confident are you in your response? Press the corresponding keys from 1 to 5 based on your experience</p>
    <ul id=""confidence-levels"">
      <li id=""conf-1"">1: Not at all confident</li>
      <li id=""conf-2"">2: Slightly confident</li>
      <li id=""conf-3"">3: Somewhat confident</li>
      <li id=""conf-4"">4: Very confident</li>
      <li id=""conf-5"">5: Completely confident</li>
    </ul>","5","","","","","",""
"","","","","","psychophysics","122","232788","0.0-10.0-26.0","457156","","1145","","","","","","","","","","","2","key","2","16.666000000000007","720","250","2"
"","","","","","html-keyboard-response","123","232874","0.0-10.0-27.0","457156","","85","","","","","","","","","","
    <p>How confident are you in your response? Press the corresponding keys from 1 to 5 based on your experience</p>
    <ul id=""confidence-levels"">
      <li id=""conf-1"">1: Not at all confident</li>
      <li id=""conf-2"">2: Slightly confident</li>
      <li id=""conf-3"">3: Somewhat confident</li>
      <li id=""conf-4"">4: Very confident</li>
      <li id=""conf-5"">5: Completely confident</li>
    </ul>","5","","","","","",""
"","","","","","psychophysics","124","234490","0.0-10.0-28.0","457156","","1613","","","","","","","","","","","2","key","2","16.67140206185556","720","250","1"
"","","","","","html-keyboard-response","125","234559","0.0-10.0-29.0","457156","","68","","","","","","","","","","
    <p>How confident are you in your response? Press the corresponding keys from 1 to 5 based on your experience</p>
    <ul id=""confidence-levels"">
      <li id=""conf-1"">1: Not at all confident</li>
      <li id=""conf-2"">2: Slightly confident</li>
      <li id=""conf-3"">3: Somewhat confident</li>
      <li id=""conf-4"">4: Very confident</li>
      <li id=""conf-5"">5: Completely confident</li>
    </ul>","5","","","","","",""
"","","","","","psychophysics","126","236027","0.0-10.0-30.0","457156","","1459","","","","","","","","","","","1","key","1","16.66599999999978","720","250","1"
"","","","","","html-keyboard-response","127","236104","0.0-10.0-31.0","457156","","76","","","","","","","","","","
    <p>How confident are you in your response? Press the corresponding keys from 1 to 5 based on your experience</p>
    <ul id=""confidence-levels"">
      <li id=""conf-1"">1: Not at all confident</li>
      <li id=""conf-2"">2: Slightly confident</li>
      <li id=""conf-3"">3: Somewhat confident</li>
      <li id=""conf-4"">4: Very confident</li>
      <li id=""conf-5"">5: Completely confident</li>
    </ul>","5","","","","","",""
"","","","","","psychophysics","128","237523","0.0-10.0-32.0","457156","","1417","","","","","","","","","","","1","key","1","16.665999999999837","720","250","1"
"","","","","","html-keyboard-response","129","237624","0.0-10.0-33.0","457156","","100","","","","","","","","","","
    <p>How confident are you in your response? Press the corresponding keys from 1 to 5 based on your experience</p>
    <ul id=""confidence-levels"">
      <li id=""conf-1"">1: Not at all confident</li>
      <li id=""conf-2"">2: Slightly confident</li>
      <li id=""conf-3"">3: Somewhat confident</li>
      <li id=""conf-4"">4: Very confident</li>
      <li id=""conf-5"">5: Completely confident</li>
    </ul>","5","","","","","",""
"","","","","","psychophysics","130","238967","0.0-10.0-34.0","457156","","1335","","","","","","","","","","","2","key","2","16.665999999999954","720","250","2"
"","","","","","html-keyboard-response","131","239041","0.0-10.0-35.0","457156","","74","","","","","","","","","","
    <p>How confident are you in your response? Press the corresponding keys from 1 to 5 based on your experience</p>
    <ul id=""confidence-levels"">
      <li id=""conf-1"">1: Not at all confident</li>
      <li id=""conf-2"">2: Slightly confident</li>
      <li id=""conf-3"">3: Somewhat confident</li>
      <li id=""conf-4"">4: Very confident</li>
      <li id=""conf-5"">5: Completely confident</li>
    </ul>","5","","","","","",""
"","","","","","psychophysics","132","240262","0.0-10.0-36.0","457156","","1218","","","","","","","","","","","1","key","1","16.666000000000267","720","250","2"
"","","","","","html-keyboard-response","133","240354","0.0-10.0-37.0","457156","","91","","","","","","","","","","
    <p>How confident are you in your response? Press the corresponding keys from 1 to 5 based on your experience</p>
    <ul id=""confidence-levels"">
      <li id=""conf-1"">1: Not at all confident</li>
      <li id=""conf-2"">2: Slightly confident</li>
      <li id=""conf-3"">3: Somewhat confident</li>
      <li id=""conf-4"">4: Very confident</li>
      <li id=""conf-5"">5: Completely confident</li>
    </ul>","5","","","","","",""
"","","","","","psychophysics","134","241499","0.0-10.0-38.0","457156","","1137","","","","","","","","","","","2","key","2","16.66599999999997","720","250","2"
"","","","","","html-keyboard-response","135","241615","0.0-10.0-39.0","457156","","115","","","","","","","","","","
    <p>How confident are you in your response? Press the corresponding keys from 1 to 5 based on your experience</p>
    <ul id=""confidence-levels"">
      <li id=""conf-1"">1: Not at all confident</li>
      <li id=""conf-2"">2: Slightly confident</li>
      <li id=""conf-3"">3: Somewhat confident</li>
      <li id=""conf-4"">4: Very confident</li>
      <li id=""conf-5"">5: Completely confident</li>
    </ul>","5","","","","","",""
"","","","","","psychophysics","136","242861","0.0-10.0-40.0","457156","","1242","","","","","","","","","","","2","key","2","16.665999999999798","720","250","1"
"","","","","","html-keyboard-response","137","242945","0.0-10.0-41.0","457156","","83","","","","","","","","","","
    <p>How confident are you in your response? Press the corresponding keys from 1 to 5 based on your experience</p>
    <ul id=""confidence-levels"">
      <li id=""conf-1"">1: Not at all confident</li>
      <li id=""conf-2"">2: Slightly confident</li>
      <li id=""conf-3"">3: Somewhat confident</li>
      <li id=""conf-4"">4: Very confident</li>
      <li id=""conf-5"">5: Completely confident</li>
    </ul>","5","","","","","",""
"","","","","","psychophysics","138","244137","0.0-10.0-42.0","457156","","1185","","","","","","","","","","","1","key","1","16.665999999999897","720","250","2"
"","","","","","html-keyboard-response","139","244225","0.0-10.0-43.0","457156","","87","","","","","","","","","","
    <p>How confident are you in your response? Press the corresponding keys from 1 to 5 based on your experience</p>
    <ul id=""confidence-levels"">
      <li id=""conf-1"">1: Not at all confident</li>
      <li id=""conf-2"">2: Slightly confident</li>
      <li id=""conf-3"">3: Somewhat confident</li>
      <li id=""conf-4"">4: Very confident</li>
      <li id=""conf-5"">5: Completely confident</li>
    </ul>","5","","","","","",""
"","","","","","psychophysics","140","245491","0.0-10.0-44.0","457156","","1262","","","","","","","","","","","2","key","2","16.665999999999737","720","250","1"
"","","","","","html-keyboard-response","141","245608","0.0-10.0-45.0","457156","","116","","","","","","","","","","
    <p>How confident are you in your response? Press the corresponding keys from 1 to 5 based on your experience</p>
    <ul id=""confidence-levels"">
      <li id=""conf-1"">1: Not at all confident</li>
      <li id=""conf-2"">2: Slightly confident</li>
      <li id=""conf-3"">3: Somewhat confident</li>
      <li id=""conf-4"">4: Very confident</li>
      <li id=""conf-5"">5: Completely confident</li>
    </ul>","5","","","","","",""
"","","","","","psychophysics","142","247522","0.0-10.0-46.0","457156","","1906","","","","","","","","","","","0","key","0","16.66599999999997","720","250","2"
"","","","","","html-keyboard-response","143","247630","0.0-10.0-47.0","457156","","107","","","","","","","","","","
    <p>How confident are you in your response? Press the corresponding keys from 1 to 5 based on your experience</p>
    <ul id=""confidence-levels"">
      <li id=""conf-1"">1: Not at all confident</li>
      <li id=""conf-2"">2: Slightly confident</li>
      <li id=""conf-3"">3: Somewhat confident</li>
      <li id=""conf-4"">4: Very confident</li>
      <li id=""conf-5"">5: Completely confident</li>
    </ul>","5","","","","","",""
"","","","","","psychophysics","144","249115","0.0-10.0-48.0","457156","","1481","","","","","","","","","","","2","key","2","16.666000000000054","720","250","2"
"","","","","","html-keyboard-response","145","249182","0.0-10.0-49.0","457156","","67","","","","","","","","","","
    <p>How confident are you in your response? Press the corresponding keys from 1 to 5 based on your experience</p>
    <ul id=""confidence-levels"">
      <li id=""conf-1"">1: Not at all confident</li>
      <li id=""conf-2"">2: Slightly confident</li>
      <li id=""conf-3"">3: Somewhat confident</li>
      <li id=""conf-4"">4: Very confident</li>
      <li id=""conf-5"">5: Completely confident</li>
    </ul>","5","","","","","",""
"","","","","","psychophysics","146","250336","0.0-10.0-50.0","457156","","1145","","","","","","","","","","","2","key","2","16.66599999999997","720","250","2"
"","","","","","html-keyboard-response","147","250440","0.0-10.0-51.0","457156","","104","","","","","","","","","","
    <p>How confident are you in your response? Press the corresponding keys from 1 to 5 based on your experience</p>
    <ul id=""confidence-levels"">
      <li id=""conf-1"">1: Not at all confident</li>
      <li id=""conf-2"">2: Slightly confident</li>
      <li id=""conf-3"">3: Somewhat confident</li>
      <li id=""conf-4"">4: Very confident</li>
      <li id=""conf-5"">5: Completely confident</li>
    </ul>","5","","","","","",""
"","","","","","psychophysics","148","251670","0.0-10.0-52.0","457156","","1226","","","","","","","","","","","1","key","1","16.665999999999798","720","250","1"
"","","","","","html-keyboard-response","149","251812","0.0-10.0-53.0","457156","","142","","","","","","","","","","
    <p>How confident are you in your response? Press the corresponding keys from 1 to 5 based on your experience</p>
    <ul id=""confidence-levels"">
      <li id=""conf-1"">1: Not at all confident</li>
      <li id=""conf-2"">2: Slightly confident</li>
      <li id=""conf-3"">3: Somewhat confident</li>
      <li id=""conf-4"">4: Very confident</li>
      <li id=""conf-5"">5: Completely confident</li>
    </ul>","5","","","","","",""
"","","","","","psychophysics","150","253114","0.0-10.0-54.0","457156","","1293","","","","","","","","","","","1","key","1","16.66600000000005","720","250","1"
"","","","","","html-keyboard-response","151","253231","0.0-10.0-55.0","457156","","116","","","","","","","","","","
    <p>How confident are you in your response? Press the corresponding keys from 1 to 5 based on your experience</p>
    <ul id=""confidence-levels"">
      <li id=""conf-1"">1: Not at all confident</li>
      <li id=""conf-2"">2: Slightly confident</li>
      <li id=""conf-3"">3: Somewhat confident</li>
      <li id=""conf-4"">4: Very confident</li>
      <li id=""conf-5"">5: Completely confident</li>
    </ul>","5","","","","","",""
"","","","","","psychophysics","152","254451","0.0-10.0-56.0","457156","","1216","","","","","","","","","","","1","key","1","16.673178082192077","720","250","2"
"","","","","","html-keyboard-response","153","254522","0.0-10.0-57.0","457156","","70","","","","","","","","","","
    <p>How confident are you in your response? Press the corresponding keys from 1 to 5 based on your experience</p>
    <ul id=""confidence-levels"">
      <li id=""conf-1"">1: Not at all confident</li>
      <li id=""conf-2"">2: Slightly confident</li>
      <li id=""conf-3"">3: Somewhat confident</li>
      <li id=""conf-4"">4: Very confident</li>
      <li id=""conf-5"">5: Completely confident</li>
    </ul>","5","","","","","",""
"","","","","","psychophysics","154","255699","0.0-10.0-58.0","457156","","1168","","","","","","","","","","","2","key","2","16.665999999999897","720","250","2"
"","","","","","html-keyboard-response","155","255811","0.0-10.0-59.0","457156","","111","","","","","","","","","","
    <p>How confident are you in your response? Press the corresponding keys from 1 to 5 based on your experience</p>
    <ul id=""confidence-levels"">
      <li id=""conf-1"">1: Not at all confident</li>
      <li id=""conf-2"">2: Slightly confident</li>
      <li id=""conf-3"">3: Somewhat confident</li>
      <li id=""conf-4"">4: Very confident</li>
      <li id=""conf-5"">5: Completely confident</li>
    </ul>","5","","","","","",""
"","","","","","psychophysics","156","257202","0.0-10.0-60.0","457156","","1388","","","","","","","","","","","1","key","1","16.665999999999894","720","250","1"
"","","","","","html-keyboard-response","157","257335","0.0-10.0-61.0","457156","","131","","","","","","","","","","
    <p>How confident are you in your response? Press the corresponding keys from 1 to 5 based on your experience</p>
    <ul id=""confidence-levels"">
      <li id=""conf-1"">1: Not at all confident</li>
      <li id=""conf-2"">2: Slightly confident</li>
      <li id=""conf-3"">3: Somewhat confident</li>
      <li id=""conf-4"">4: Very confident</li>
      <li id=""conf-5"">5: Completely confident</li>
    </ul>","5","","","","","",""
"","","","","","psychophysics","158","258355","0.0-10.0-62.0","457156","","1011","","","","","","","","","","","2","key","2","16.665999999999823","720","250","2"
"","","","","","html-keyboard-response","159","258455","0.0-10.0-63.0","457156","","99","","","","","","","","","","
    <p>How confident are you in your response? Press the corresponding keys from 1 to 5 based on your experience</p>
    <ul id=""confidence-levels"">
      <li id=""conf-1"">1: Not at all confident</li>
      <li id=""conf-2"">2: Slightly confident</li>
      <li id=""conf-3"">3: Somewhat confident</li>
      <li id=""conf-4"">4: Very confident</li>
      <li id=""conf-5"">5: Completely confident</li>
    </ul>","5","","","","","",""
"","","","","","psychophysics","160","259540","0.0-10.0-64.0","457156","","1081","","","","","","","","","","","1","key","1","16.665999999999677","720","250","2"
"","","","","","html-keyboard-response","161","259588","0.0-10.0-65.0","457156","","48","","","","","","","","","","
    <p>How confident are you in your response? Press the corresponding keys from 1 to 5 based on your experience</p>
    <ul id=""confidence-levels"">
      <li id=""conf-1"">1: Not at all confident</li>
      <li id=""conf-2"">2: Slightly confident</li>
      <li id=""conf-3"">3: Somewhat confident</li>
      <li id=""conf-4"">4: Very confident</li>
      <li id=""conf-5"">5: Completely confident</li>
    </ul>","5","","","","","",""
"","","","","","psychophysics","162","261309","0.0-10.0-66.0","457156","","1713","","","","","","","","","","","0","key","0","16.666000000000007","720","250","1"
"","","","","","html-keyboard-response","163","261405","0.0-10.0-67.0","457156","","95","","","","","","","","","","
    <p>How confident are you in your response? Press the corresponding keys from 1 to 5 based on your experience</p>
    <ul id=""confidence-levels"">
      <li id=""conf-1"">1: Not at all confident</li>
      <li id=""conf-2"">2: Slightly confident</li>
      <li id=""conf-3"">3: Somewhat confident</li>
      <li id=""conf-4"">4: Very confident</li>
      <li id=""conf-5"">5: Completely confident</li>
    </ul>","5","","","","","",""
"","","","","","psychophysics","164","262732","0.0-10.0-68.0","457156","","1323","","","","","","","","","","","2","key","2","16.66600000000035","720","250","2"
"","","","","","html-keyboard-response","165","262814","0.0-10.0-69.0","457156","","81","","","","","","","","","","
    <p>How confident are you in your response? Press the corresponding keys from 1 to 5 based on your experience</p>
    <ul id=""confidence-levels"">
      <li id=""conf-1"">1: Not at all confident</li>
      <li id=""conf-2"">2: Slightly confident</li>
      <li id=""conf-3"">3: Somewhat confident</li>
      <li id=""conf-4"">4: Very confident</li>
      <li id=""conf-5"">5: Completely confident</li>
    </ul>","5","","","","","",""
"","","","","","psychophysics","166","264677","0.0-10.0-70.0","457156","","1856","","","","","","","","","","","2","key","2","16.666000000000324","720","250","2"
"","","","","","html-keyboard-response","167","264743","0.0-10.0-71.0","457156","","65","","","","","","","","","","
    <p>How confident are you in your response? Press the corresponding keys from 1 to 5 based on your experience</p>
    <ul id=""confidence-levels"">
      <li id=""conf-1"">1: Not at all confident</li>
      <li id=""conf-2"">2: Slightly confident</li>
      <li id=""conf-3"">3: Somewhat confident</li>
      <li id=""conf-4"">4: Very confident</li>
      <li id=""conf-5"">5: Completely confident</li>
    </ul>","5","","","","","",""
"","","","","","psychophysics","168","266187","0.0-10.0-72.0","457156","","1440","","","","","","","","","","","1","key","1","16.66599999999978","720","250","1"
"","","","","","html-keyboard-response","169","266364","0.0-10.0-73.0","457156","","176","","","","","","","","","","
    <p>How confident are you in your response? Press the corresponding keys from 1 to 5 based on your experience</p>
    <ul id=""confidence-levels"">
      <li id=""conf-1"">1: Not at all confident</li>
      <li id=""conf-2"">2: Slightly confident</li>
      <li id=""conf-3"">3: Somewhat confident</li>
      <li id=""conf-4"">4: Very confident</li>
      <li id=""conf-5"">5: Completely confident</li>
    </ul>","5","","","","","",""
"","","","","","psychophysics","170","268306","0.0-10.0-74.0","457156","","1934","","","","","","","","","","","1","key","1","16.665999999999947","720","250","1"
"","","","","","html-keyboard-response","171","268375","0.0-10.0-75.0","457156","","68","","","","","","","","","","
    <p>How confident are you in your response? Press the corresponding keys from 1 to 5 based on your experience</p>
    <ul id=""confidence-levels"">
      <li id=""conf-1"">1: Not at all confident</li>
      <li id=""conf-2"">2: Slightly confident</li>
      <li id=""conf-3"">3: Somewhat confident</li>
      <li id=""conf-4"">4: Very confident</li>
      <li id=""conf-5"">5: Completely confident</li>
    </ul>","5","","","","","",""
"","","","","","psychophysics","172","269775","0.0-10.0-76.0","457156","","1397","","","","","","","","","","","1","key","1","16.665999999999517","720","250","2"
"","","","","","html-keyboard-response","173","269922","0.0-10.0-77.0","457156","","146","","","","","","","","","","
    <p>How confident are you in your response? Press the corresponding keys from 1 to 5 based on your experience</p>
    <ul id=""confidence-levels"">
      <li id=""conf-1"">1: Not at all confident</li>
      <li id=""conf-2"">2: Slightly confident</li>
      <li id=""conf-3"">3: Somewhat confident</li>
      <li id=""conf-4"">4: Very confident</li>
      <li id=""conf-5"">5: Completely confident</li>
    </ul>","5","","","","","",""
"","","","","","html-keyboard-response","174","272495","0.0-11.0","457156","","2573","","","","","","","","","","Your average response time is 795.462 ms You are doing great"," ","","","","","",""
"","","","","","html-button-response","175","332989","0.0-12.0","457156","","60537","","","","","","","","","","<p>You have successfully completed one block of the experiment. The next part of the experiment can be started in <span id=""clock"">1:00</span> <br>You can take a break for a minute or more if you like and Press continue when you are ready","0","","","","","",""
"","","","","","psychophysics","176","335726","0.0-13.0-0.0","457156","","2727","","","","","","","","","","","1","key","1","16.665999999999922","720","250","1"
"","","","","","html-keyboard-response","177","335832","0.0-13.0-1.0","457156","","106","","","","","","","","","","
    <p>How confident are you in your response? Press the corresponding keys from 1 to 5 based on your experience</p>
    <ul id=""confidence-levels"">
      <li id=""conf-1"">1: Not at all confident</li>
      <li id=""conf-2"">2: Slightly confident</li>
      <li id=""conf-3"">3: Somewhat confident</li>
      <li id=""conf-4"">4: Very confident</li>
      <li id=""conf-5"">5: Completely confident</li>
    </ul>","5","","","","","",""
"","","","","","psychophysics","178","337202","0.0-13.0-2.0","457156","","1366","","","","","","","","","","","1","key","1","16.666000000000277","720","250","1"
"","","","","","html-keyboard-response","179","337278","0.0-13.0-3.0","457156","","75","","","","","","","","","","
    <p>How confident are you in your response? Press the corresponding keys from 1 to 5 based on your experience</p>
    <ul id=""confidence-levels"">
      <li id=""conf-1"">1: Not at all confident</li>
      <li id=""conf-2"">2: Slightly confident</li>
      <li id=""conf-3"">3: Somewhat confident</li>
      <li id=""conf-4"">4: Very confident</li>
      <li id=""conf-5"">5: Completely confident</li>
    </ul>","5","","","","","",""
"","","","","","psychophysics","180","338539","0.0-13.0-4.0","457156","","1252","","","","","","","","","","","1","key","1","16.665999999999737","720","250","1"
"","","","","","html-keyboard-response","181","338675","0.0-13.0-5.0","457156","","135","","","","","","","","","","
    <p>How confident are you in your response? Press the corresponding keys from 1 to 5 based on your experience</p>
    <ul id=""confidence-levels"">
      <li id=""conf-1"">1: Not at all confident</li>
      <li id=""conf-2"">2: Slightly confident</li>
      <li id=""conf-3"">3: Somewhat confident</li>
      <li id=""conf-4"">4: Very confident</li>
      <li id=""conf-5"">5: Completely confident</li>
    </ul>","5","","","","","",""
"","","","","","psychophysics","182","340307","0.0-13.0-6.0","457156","","1627","","","","","","","","","","","1","key","1","16.665999999999816","720","250","1"
"","","","","","html-keyboard-response","183","340477","0.0-13.0-7.0","457156","","169","","","","","","","","","","
    <p>How confident are you in your response? Press the corresponding keys from 1 to 5 based on your experience</p>
    <ul id=""confidence-levels"">
      <li id=""conf-1"">1: Not at all confident</li>
      <li id=""conf-2"">2: Slightly confident</li>
      <li id=""conf-3"">3: Somewhat confident</li>
      <li id=""conf-4"">4: Very confident</li>
      <li id=""conf-5"">5: Completely confident</li>
    </ul>","5","","","","","",""
"","","","","","psychophysics","184","341666","0.0-13.0-8.0","457156","","1181","","","","","","","","","","","1","key","1","16.66600000000031","720","250","1"
"","","","","","html-keyboard-response","185","341776","0.0-13.0-9.0","457156","","110","","","","","","","","","","
    <p>How confident are you in your response? Press the corresponding keys from 1 to 5 based on your experience</p>
    <ul id=""confidence-levels"">
      <li id=""conf-1"">1: Not at all confident</li>
      <li id=""conf-2"">2: Slightly confident</li>
      <li id=""conf-3"">3: Somewhat confident</li>
      <li id=""conf-4"">4: Very confident</li>
      <li id=""conf-5"">5: Completely confident</li>
    </ul>","5","","","","","",""
"","","","","","psychophysics","186","342884","0.0-13.0-10.0","457156","","1104","","","","","","","","","","","1","key","1","16.66599999999961","720","250","1"
"","","","","","html-keyboard-response","187","343128","0.0-13.0-11.0","457156","","243","","","","","","","","","","
    <p>How confident are you in your response? Press the corresponding keys from 1 to 5 based on your experience</p>
    <ul id=""confidence-levels"">
      <li id=""conf-1"">1: Not at all confident</li>
      <li id=""conf-2"">2: Slightly confident</li>
      <li id=""conf-3"">3: Somewhat confident</li>
      <li id=""conf-4"">4: Very confident</li>
      <li id=""conf-5"">5: Completely confident</li>
    </ul>","5","","","","","",""
"","","","","","psychophysics","188","344295","0.0-13.0-12.0","457156","","1159","","","","","","","","","","","1","key","1","16.665999999999933","720","250","1"
"","","","","","html-keyboard-response","189","344395","0.0-13.0-13.0","457156","","100","","","","","","","","","","
    <p>How confident are you in your response? Press the corresponding keys from 1 to 5 based on your experience</p>
    <ul id=""confidence-levels"">
      <li id=""conf-1"">1: Not at all confident</li>
      <li id=""conf-2"">2: Slightly confident</li>
      <li id=""conf-3"">3: Somewhat confident</li>
      <li id=""conf-4"">4: Very confident</li>
      <li id=""conf-5"">5: Completely confident</li>
    </ul>","5","","","","","",""
"","","","","","psychophysics","190","346134","0.0-13.0-14.0","457156","","1734","","","","","","","","","","","1","key","1","16.671038461538465","720","250","1"
"","","","","","html-keyboard-response","191","346277","0.0-13.0-15.0","457156","","142","","","","","","","","","","
    <p>How confident are you in your response? Press the corresponding keys from 1 to 5 based on your experience</p>
    <ul id=""confidence-levels"">
      <li id=""conf-1"">1: Not at all confident</li>
      <li id=""conf-2"">2: Slightly confident</li>
      <li id=""conf-3"">3: Somewhat confident</li>
      <li id=""conf-4"">4: Very confident</li>
      <li id=""conf-5"">5: Completely confident</li>
    </ul>","5","","","","","",""
"","","","","","psychophysics","192","347500","0.0-13.0-16.0","457156","","1215","","","","","","","","","","","2","key","2","16.89430136986281","720","250","1"
"","","","","","html-keyboard-response","193","347591","0.0-13.0-17.0","457156","","90","","","","","","","","","","
    <p>How confident are you in your response? Press the corresponding keys from 1 to 5 based on your experience</p>
    <ul id=""confidence-levels"">
      <li id=""conf-1"">1: Not at all confident</li>
      <li id=""conf-2"">2: Slightly confident</li>
      <li id=""conf-3"">3: Somewhat confident</li>
      <li id=""conf-4"">4: Very confident</li>
      <li id=""conf-5"">5: Completely confident</li>
    </ul>","5","","","","","",""
"","","","","","psychophysics","194","353134","0.0-13.0-18.0","457156","","5538","","","","","","","","","","","2","key","2","16.665999999999972","720","250","1"
"","","","","","html-keyboard-response","195","353434","0.0-13.0-19.0","457156","","300","","","","","","","","","","
    <p>How confident are you in your response? Press the corresponding keys from 1 to 5 based on your experience</p>
    <ul id=""confidence-levels"">
      <li id=""conf-1"">1: Not at all confident</li>
      <li id=""conf-2"">2: Slightly confident</li>
      <li id=""conf-3"">3: Somewhat confident</li>
      <li id=""conf-4"">4: Very confident</li>
      <li id=""conf-5"">5: Completely confident</li>
    </ul>","5","","","","","",""
"","","","","","psychophysics","196","354623","0.0-13.0-20.0","457156","","1180","","","","","","","","","","","1","key","1","16.66600000000031","720","250","1"
"","","","","","html-keyboard-response","197","354844","0.0-13.0-21.0","457156","","220","","","","","","","","","","
    <p>How confident are you in your response? Press the corresponding keys from 1 to 5 based on your experience</p>
    <ul id=""confidence-levels"">
      <li id=""conf-1"">1: Not at all confident</li>
      <li id=""conf-2"">2: Slightly confident</li>
      <li id=""conf-3"">3: Somewhat confident</li>
      <li id=""conf-4"">4: Very confident</li>
      <li id=""conf-5"">5: Completely confident</li>
    </ul>","5","","","","","",""
"","","","","","psychophysics","198","356415","0.0-13.0-22.0","457156","","1567","","","","","","","","","","","1","key","1","16.666000000000196","720","250","1"
"","","","","","html-keyboard-response","199","356929","0.0-13.0-23.0","457156","","513","","","","","","","","","","
    <p>How confident are you in your response? Press the corresponding keys from 1 to 5 based on your experience</p>
    <ul id=""confidence-levels"">
      <li id=""conf-1"">1: Not at all confident</li>
      <li id=""conf-2"">2: Slightly confident</li>
      <li id=""conf-3"">3: Somewhat confident</li>
      <li id=""conf-4"">4: Very confident</li>
      <li id=""conf-5"">5: Completely confident</li>
    </ul>","5","","","","","",""
"","","","","","psychophysics","200","358620","0.0-13.0-24.0","457156","","1683","","","","","","","","","","","2","key","2","16.665999999999723","720","250","1"
"","","","","","html-keyboard-response","201","358905","0.0-13.0-25.0","457156","","285","","","","","","","","","","
    <p>How confident are you in your response? Press the corresponding keys from 1 to 5 based on your experience</p>
    <ul id=""confidence-levels"">
      <li id=""conf-1"">1: Not at all confident</li>
      <li id=""conf-2"">2: Slightly confident</li>
      <li id=""conf-3"">3: Somewhat confident</li>
      <li id=""conf-4"">4: Very confident</li>
      <li id=""conf-5"">5: Completely confident</li>
    </ul>","5","","","","","",""
"","","","","","psychophysics","202","360114","0.0-13.0-26.0","457156","","1205","","","","","","","","","","","1","key","1","16.665999999999432","720","250","1"
"","","","","","html-keyboard-response","203","360273","0.0-13.0-27.0","457156","","159","","","","","","","","","","
    <p>How confident are you in your response? Press the corresponding keys from 1 to 5 based on your experience</p>
    <ul id=""confidence-levels"">
      <li id=""conf-1"">1: Not at all confident</li>
      <li id=""conf-2"">2: Slightly confident</li>
      <li id=""conf-3"">3: Somewhat confident</li>
      <li id=""conf-4"">4: Very confident</li>
      <li id=""conf-5"">5: Completely confident</li>
    </ul>","5","","","","","",""
"","","","","","psychophysics","204","361895","0.0-13.0-28.0","457156","","1613","","","","","","","","","","","1","key","1","16.66600000000014","720","250","1"
"","","","","","html-keyboard-response","205","362031","0.0-13.0-29.0","457156","","136","","","","","","","","","","
    <p>How confident are you in your response? Press the corresponding keys from 1 to 5 based on your experience</p>
    <ul id=""confidence-levels"">
      <li id=""conf-1"">1: Not at all confident</li>
      <li id=""conf-2"">2: Slightly confident</li>
      <li id=""conf-3"">3: Somewhat confident</li>
      <li id=""conf-4"">4: Very confident</li>
      <li id=""conf-5"">5: Completely confident</li>
    </ul>","5","","","","","",""
"","","","","","psychophysics","206","363133","0.0-13.0-30.0","457156","","1097","","","","","","","","","","","2","key","2","16.666000000000086","720","250","1"
"","","","","","html-keyboard-response","207","363282","0.0-13.0-31.0","457156","","149","","","","","","","","","","
    <p>How confident are you in your response? Press the corresponding keys from 1 to 5 based on your experience</p>
    <ul id=""confidence-levels"">
      <li id=""conf-1"">1: Not at all confident</li>
      <li id=""conf-2"">2: Slightly confident</li>
      <li id=""conf-3"">3: Somewhat confident</li>
      <li id=""conf-4"">4: Very confident</li>
      <li id=""conf-5"">5: Completely confident</li>
    </ul>","5","","","","","",""
"","","","","","psychophysics","208","367108","0.0-13.0-32.0","457156","","3816","","","","","","","","","","","2","key","2","16.668288209606988","720","250","1"
"","","","","","html-keyboard-response","209","369281","0.0-13.0-33.0","457156","","2172","","","","","","","","","","
    <p>How confident are you in your response? Press the corresponding keys from 1 to 5 based on your experience</p>
    <ul id=""confidence-levels"">
      <li id=""conf-1"">1: Not at all confident</li>
      <li id=""conf-2"">2: Slightly confident</li>
      <li id=""conf-3"">3: Somewhat confident</li>
      <li id=""conf-4"">4: Very confident</li>
      <li id=""conf-5"">5: Completely confident</li>
    </ul>","1","","","","","",""
"","","","","","psychophysics","210","371592","0.0-13.0-34.0","457156","","2306","","","","","","","","","","","1","key","1","16.66599999999997","720","250","1"
"","","","","","html-keyboard-response","211","371692","0.0-13.0-35.0","457156","","100","","","","","","","","","","
    <p>How confident are you in your response? Press the corresponding keys from 1 to 5 based on your experience</p>
    <ul id=""confidence-levels"">
      <li id=""conf-1"">1: Not at all confident</li>
      <li id=""conf-2"">2: Slightly confident</li>
      <li id=""conf-3"">3: Somewhat confident</li>
      <li id=""conf-4"">4: Very confident</li>
      <li id=""conf-5"">5: Completely confident</li>
    </ul>","5","","","","","",""
"","","","","","psychophysics","212","374325","0.0-13.0-36.0","457156","","2622","","","","","","","","","","","1","key","1","16.666000000000018","720","250","1"
"","","","","","html-keyboard-response","213","374431","0.0-13.0-37.0","457156","","105","","","","","","","","","","
    <p>How confident are you in your response? Press the corresponding keys from 1 to 5 based on your experience</p>
    <ul id=""confidence-levels"">
      <li id=""conf-1"">1: Not at all confident</li>
      <li id=""conf-2"">2: Slightly confident</li>
      <li id=""conf-3"">3: Somewhat confident</li>
      <li id=""conf-4"">4: Very confident</li>
      <li id=""conf-5"">5: Completely confident</li>
    </ul>","5","","","","","",""
"","","","","","psychophysics","214","375517","0.0-13.0-38.0","457156","","1082","","","","","","","","","","","1","key","1","16.665999999999677","720","250","1"
"","","","","","html-keyboard-response","215","375585","0.0-13.0-39.0","457156","","67","","","","","","","","","","
    <p>How confident are you in your response? Press the corresponding keys from 1 to 5 based on your experience</p>
    <ul id=""confidence-levels"">
      <li id=""conf-1"">1: Not at all confident</li>
      <li id=""conf-2"">2: Slightly confident</li>
      <li id=""conf-3"">3: Somewhat confident</li>
      <li id=""conf-4"">4: Very confident</li>
      <li id=""conf-5"">5: Completely confident</li>
    </ul>","5","","","","","",""
"","","","","","psychophysics","216","376595","0.0-13.0-40.0","457156","","1002","","","","","","","","","","","1","key","1","16.66599999999938","720","250","1"
"","","","","","html-keyboard-response","217","376661","0.0-13.0-41.0","457156","","65","","","","","","","","","","
    <p>How confident are you in your response? Press the corresponding keys from 1 to 5 based on your experience</p>
    <ul id=""confidence-levels"">
      <li id=""conf-1"">1: Not at all confident</li>
      <li id=""conf-2"">2: Slightly confident</li>
      <li id=""conf-3"">3: Somewhat confident</li>
      <li id=""conf-4"">4: Very confident</li>
      <li id=""conf-5"">5: Completely confident</li>
    </ul>","5","","","","","",""
"","","","","","psychophysics","218","378133","0.0-13.0-42.0","457156","","1468","","","","","","","","","","","1","key","1","16.66600000000038","720","250","1"
"","","","","","html-keyboard-response","219","378211","0.0-13.0-43.0","457156","","77","","","","","","","","","","
    <p>How confident are you in your response? Press the corresponding keys from 1 to 5 based on your experience</p>
    <ul id=""confidence-levels"">
      <li id=""conf-1"">1: Not at all confident</li>
      <li id=""conf-2"">2: Slightly confident</li>
      <li id=""conf-3"">3: Somewhat confident</li>
      <li id=""conf-4"">4: Very confident</li>
      <li id=""conf-5"">5: Completely confident</li>
    </ul>","5","","","","","",""
"","","","","","psychophysics","220","379441","0.0-13.0-44.0","457156","","1221","","","","","","","","","","","1","key","1","16.66600000000023","720","250","1"
"","","","","","html-keyboard-response","221","379522","0.0-13.0-45.0","457156","","81","","","","","","","","","","
    <p>How confident are you in your response? Press the corresponding keys from 1 to 5 based on your experience</p>
    <ul id=""confidence-levels"">
      <li id=""conf-1"">1: Not at all confident</li>
      <li id=""conf-2"">2: Slightly confident</li>
      <li id=""conf-3"">3: Somewhat confident</li>
      <li id=""conf-4"">4: Very confident</li>
      <li id=""conf-5"">5: Completely confident</li>
    </ul>","5","","","","","",""
"","","","","","psychophysics","222","380519","0.0-13.0-46.0","457156","","993","","","","","","","","","","","1","key","1","16.66600000000035","720","250","1"
"","","","","","html-keyboard-response","223","380595","0.0-13.0-47.0","457156","","75","","","","","","","","","","
    <p>How confident are you in your response? Press the corresponding keys from 1 to 5 based on your experience</p>
    <ul id=""confidence-levels"">
      <li id=""conf-1"">1: Not at all confident</li>
      <li id=""conf-2"">2: Slightly confident</li>
      <li id=""conf-3"">3: Somewhat confident</li>
      <li id=""conf-4"">4: Very confident</li>
      <li id=""conf-5"">5: Completely confident</li>
    </ul>","5","","","","","",""
"","","","","","psychophysics","224","381896","0.0-13.0-48.0","457156","","1293","","","","","","","","","","","1","key","1","16.666000000000086","720","250","1"
"","","","","","html-keyboard-response","225","381969","0.0-13.0-49.0","457156","","72","","","","","","","","","","
    <p>How confident are you in your response? Press the corresponding keys from 1 to 5 based on your experience</p>
    <ul id=""confidence-levels"">
      <li id=""conf-1"">1: Not at all confident</li>
      <li id=""conf-2"">2: Slightly confident</li>
      <li id=""conf-3"">3: Somewhat confident</li>
      <li id=""conf-4"">4: Very confident</li>
      <li id=""conf-5"">5: Completely confident</li>
    </ul>","5","","","","","",""
"","","","","","psychophysics","226","383094","0.0-13.0-50.0","457156","","1120","","","","","","","","","","","1","key","1","16.66599999999961","720","250","1"
"","","","","","html-keyboard-response","227","383178","0.0-13.0-51.0","457156","","84","","","","","","","","","","
    <p>How confident are you in your response? Press the corresponding keys from 1 to 5 based on your experience</p>
    <ul id=""confidence-levels"">
      <li id=""conf-1"">1: Not at all confident</li>
      <li id=""conf-2"">2: Slightly confident</li>
      <li id=""conf-3"">3: Somewhat confident</li>
      <li id=""conf-4"">4: Very confident</li>
      <li id=""conf-5"">5: Completely confident</li>
    </ul>","5","","","","","",""
"","","","","","psychophysics","228","384458","0.0-13.0-52.0","457156","","1272","","","","","","","","","","","1","key","1","16.665999999999737","720","250","1"
"","","","","","html-keyboard-response","229","384563","0.0-13.0-53.0","457156","","104","","","","","","","","","","
    <p>How confident are you in your response? Press the corresponding keys from 1 to 5 based on your experience</p>
    <ul id=""confidence-levels"">
      <li id=""conf-1"">1: Not at all confident</li>
      <li id=""conf-2"">2: Slightly confident</li>
      <li id=""conf-3"">3: Somewhat confident</li>
      <li id=""conf-4"">4: Very confident</li>
      <li id=""conf-5"">5: Completely confident</li>
    </ul>","5","","","","","",""
"","","","","","psychophysics","230","385569","0.0-13.0-54.0","457156","","1003","","","","","","","","","","","1","key","1","16.67471666666679","720","250","1"
"","","","","","html-keyboard-response","231","385658","0.0-13.0-55.0","457156","","89","","","","","","","","","","
    <p>How confident are you in your response? Press the corresponding keys from 1 to 5 based on your experience</p>
    <ul id=""confidence-levels"">
      <li id=""conf-1"">1: Not at all confident</li>
      <li id=""conf-2"">2: Slightly confident</li>
      <li id=""conf-3"">3: Somewhat confident</li>
      <li id=""conf-4"">4: Very confident</li>
      <li id=""conf-5"">5: Completely confident</li>
    </ul>","5","","","","","",""
"","","","","","psychophysics","232","387187","0.0-13.0-56.0","457156","","1511","","","","","","","","","","","1","key","1","16.665999999999677","720","250","1"
"","","","","","html-keyboard-response","233","387239","0.0-13.0-57.0","457156","","52","","","","","","","","","","
    <p>How confident are you in your response? Press the corresponding keys from 1 to 5 based on your experience</p>
    <ul id=""confidence-levels"">
      <li id=""conf-1"">1: Not at all confident</li>
      <li id=""conf-2"">2: Slightly confident</li>
      <li id=""conf-3"">3: Somewhat confident</li>
      <li id=""conf-4"">4: Very confident</li>
      <li id=""conf-5"">5: Completely confident</li>
    </ul>","5","","","","","",""
"","","","","","psychophysics","234","388256","0.0-13.0-58.0","457156","","1013","","","","","","","","","","","1","key","1","16.66599999999938","720","250","1"
"","","","","","html-keyboard-response","235","388659","0.0-13.0-59.0","457156","","403","","","","","","","","","","
    <p>How confident are you in your response? Press the corresponding keys from 1 to 5 based on your experience</p>
    <ul id=""confidence-levels"">
      <li id=""conf-1"">1: Not at all confident</li>
      <li id=""conf-2"">2: Slightly confident</li>
      <li id=""conf-3"">3: Somewhat confident</li>
      <li id=""conf-4"">4: Very confident</li>
      <li id=""conf-5"">5: Completely confident</li>
    </ul>","5","","","","","",""
"","","","","","psychophysics","236","390128","0.0-13.0-60.0","457156","","1460","","","","","","","","","","","1","key","1","16.666000000000086","720","250","1"
"","","","","","html-keyboard-response","237","390305","0.0-13.0-61.0","457156","","177","","","","","","","","","","
    <p>How confident are you in your response? Press the corresponding keys from 1 to 5 based on your experience</p>
    <ul id=""confidence-levels"">
      <li id=""conf-1"">1: Not at all confident</li>
      <li id=""conf-2"">2: Slightly confident</li>
      <li id=""conf-3"">3: Somewhat confident</li>
      <li id=""conf-4"">4: Very confident</li>
      <li id=""conf-5"">5: Completely confident</li>
    </ul>","5","","","","","",""
"","","","","","psychophysics","238","391325","0.0-13.0-62.0","457156","","1016","","","","","","","","","","","1","key","1","16.665999999999823","720","250","1"
"","","","","","html-keyboard-response","239","391413","0.0-13.0-63.0","457156","","88","","","","","","","","","","
    <p>How confident are you in your response? Press the corresponding keys from 1 to 5 based on your experience</p>
    <ul id=""confidence-levels"">
      <li id=""conf-1"">1: Not at all confident</li>
      <li id=""conf-2"">2: Slightly confident</li>
      <li id=""conf-3"">3: Somewhat confident</li>
      <li id=""conf-4"">4: Very confident</li>
      <li id=""conf-5"">5: Completely confident</li>
    </ul>","5","","","","","",""
"","","","","","psychophysics","240","392414","0.0-13.0-64.0","457156","","991","","","","","","","","","","","1","key","1","16.66599999999938","720","250","1"
"","","","","","html-keyboard-response","241","392500","0.0-13.0-65.0","457156","","85","","","","","","","","","","
    <p>How confident are you in your response? Press the corresponding keys from 1 to 5 based on your experience</p>
    <ul id=""confidence-levels"">
      <li id=""conf-1"">1: Not at all confident</li>
      <li id=""conf-2"">2: Slightly confident</li>
      <li id=""conf-3"">3: Somewhat confident</li>
      <li id=""conf-4"">4: Very confident</li>
      <li id=""conf-5"">5: Completely confident</li>
    </ul>","5","","","","","",""
"","","","","","psychophysics","242","393460","0.0-13.0-66.0","457156","","957","","","","","","","","","","","1","key","1","16.665999999999993","720","250","1"
"","","","","","html-keyboard-response","243","393548","0.0-13.0-67.0","457156","","87","","","","","","","","","","
    <p>How confident are you in your response? Press the corresponding keys from 1 to 5 based on your experience</p>
    <ul id=""confidence-levels"">
      <li id=""conf-1"">1: Not at all confident</li>
      <li id=""conf-2"">2: Slightly confident</li>
      <li id=""conf-3"">3: Somewhat confident</li>
      <li id=""conf-4"">4: Very confident</li>
      <li id=""conf-5"">5: Completely confident</li>
    </ul>","5","","","","","",""
"","","","","","psychophysics","244","394804","0.0-13.0-68.0","457156","","1247","","","","","","","","","","","1","key","1","16.666000000000157","720","250","1"
"","","","","","html-keyboard-response","245","394922","0.0-13.0-69.0","457156","","117","","","","","","","","","","
    <p>How confident are you in your response? Press the corresponding keys from 1 to 5 based on your experience</p>
    <ul id=""confidence-levels"">
      <li id=""conf-1"">1: Not at all confident</li>
      <li id=""conf-2"">2: Slightly confident</li>
      <li id=""conf-3"">3: Somewhat confident</li>
      <li id=""conf-4"">4: Very confident</li>
      <li id=""conf-5"">5: Completely confident</li>
    </ul>","5","","","","","",""
"","","","","","psychophysics","246","396155","0.0-13.0-70.0","457156","","1229","","","","","","","","","","","1","key","1","16.665999999999798","720","250","1"
"","","","","","html-keyboard-response","247","396355","0.0-13.0-71.0","457156","","200","","","","","","","","","","
    <p>How confident are you in your response? Press the corresponding keys from 1 to 5 based on your experience</p>
    <ul id=""confidence-levels"">
      <li id=""conf-1"">1: Not at all confident</li>
      <li id=""conf-2"">2: Slightly confident</li>
      <li id=""conf-3"">3: Somewhat confident</li>
      <li id=""conf-4"">4: Very confident</li>
      <li id=""conf-5"">5: Completely confident</li>
    </ul>","5","","","","","",""
"","","","","","psychophysics","248","397381","0.0-13.0-72.0","457156","","1018","","","","","","","","","","","1","key","1","16.66599999999932","720","250","1"
"","","","","","html-keyboard-response","249","397487","0.0-13.0-73.0","457156","","105","","","","","","","","","","
    <p>How confident are you in your response? Press the corresponding keys from 1 to 5 based on your experience</p>
    <ul id=""confidence-levels"">
      <li id=""conf-1"">1: Not at all confident</li>
      <li id=""conf-2"">2: Slightly confident</li>
      <li id=""conf-3"">3: Somewhat confident</li>
      <li id=""conf-4"">4: Very confident</li>
      <li id=""conf-5"">5: Completely confident</li>
    </ul>","5","","","","","",""
"","","","","","psychophysics","250","398453","0.0-13.0-74.0","457156","","963","","","","","","","","","","","1","key","1","16.665999999999446","720","250","1"
"","","","","","html-keyboard-response","251","398548","0.0-13.0-75.0","457156","","95","","","","","","","","","","
    <p>How confident are you in your response? Press the corresponding keys from 1 to 5 based on your experience</p>
    <ul id=""confidence-levels"">
      <li id=""conf-1"">1: Not at all confident</li>
      <li id=""conf-2"">2: Slightly confident</li>
      <li id=""conf-3"">3: Somewhat confident</li>
      <li id=""conf-4"">4: Very confident</li>
      <li id=""conf-5"">5: Completely confident</li>
    </ul>","5","","","","","",""
"","","","","","psychophysics","252","399623","0.0-13.0-76.0","457156","","1067","","","","","","","","","","","1","key","1","16.666000000000167","720","250","1"
"","","","","","html-keyboard-response","253","399748","0.0-13.0-77.0","457156","","124","","","","","","","","","","
    <p>How confident are you in your response? Press the corresponding keys from 1 to 5 based on your experience</p>
    <ul id=""confidence-levels"">
      <li id=""conf-1"">1: Not at all confident</li>
      <li id=""conf-2"">2: Slightly confident</li>
      <li id=""conf-3"">3: Somewhat confident</li>
      <li id=""conf-4"">4: Very confident</li>
      <li id=""conf-5"">5: Completely confident</li>
    </ul>","5","","","","","",""
"","","","","","psychophysics","254","400695","0.0-13.0-78.0","457156","","944","","","","","","","","","","","1","key","1","16.665999999999517","720","250","1"
"","","","","","html-keyboard-response","255","400785","0.0-13.0-79.0","457156","","89","","","","","","","","","","
    <p>How confident are you in your response? Press the corresponding keys from 1 to 5 based on your experience</p>
    <ul id=""confidence-levels"">
      <li id=""conf-1"">1: Not at all confident</li>
      <li id=""conf-2"">2: Slightly confident</li>
      <li id=""conf-3"">3: Somewhat confident</li>
      <li id=""conf-4"">4: Very confident</li>
      <li id=""conf-5"">5: Completely confident</li>
    </ul>","5","","","","","",""
"","","","","","psychophysics","256","401723","0.0-13.0-80.0","457156","","927","","","","","","","","","","","1","key","1","16.666000000000558","720","250","1"
"","","","","","html-keyboard-response","257","401808","0.0-13.0-81.0","457156","","84","","","","","","","","","","
    <p>How confident are you in your response? Press the corresponding keys from 1 to 5 based on your experience</p>
    <ul id=""confidence-levels"">
      <li id=""conf-1"">1: Not at all confident</li>
      <li id=""conf-2"">2: Slightly confident</li>
      <li id=""conf-3"">3: Somewhat confident</li>
      <li id=""conf-4"">4: Very confident</li>
      <li id=""conf-5"">5: Completely confident</li>
    </ul>","5","","","","","",""
"","","","","","psychophysics","258","403552","0.0-13.0-82.0","457156","","1740","","","","","","","","","","","1","key","1","16.666000000000487","720","250","1"
"","","","","","html-keyboard-response","259","403660","0.0-13.0-83.0","457156","","108","","","","","","","","","","
    <p>How confident are you in your response? Press the corresponding keys from 1 to 5 based on your experience</p>
    <ul id=""confidence-levels"">
      <li id=""conf-1"">1: Not at all confident</li>
      <li id=""conf-2"">2: Slightly confident</li>
      <li id=""conf-3"">3: Somewhat confident</li>
      <li id=""conf-4"">4: Very confident</li>
      <li id=""conf-5"">5: Completely confident</li>
    </ul>","5","","","","","",""
"","","","","","psychophysics","260","404910","0.0-13.0-84.0","457156","","1241","","","","","","","","","","","1","key","1","16.666000000000587","720","250","1"
"","","","","","html-keyboard-response","261","405064","0.0-13.0-85.0","457156","","154","","","","","","","","","","
    <p>How confident are you in your response? Press the corresponding keys from 1 to 5 based on your experience</p>
    <ul id=""confidence-levels"">
      <li id=""conf-1"">1: Not at all confident</li>
      <li id=""conf-2"">2: Slightly confident</li>
      <li id=""conf-3"">3: Somewhat confident</li>
      <li id=""conf-4"">4: Very confident</li>
      <li id=""conf-5"">5: Completely confident</li>
    </ul>","5","","","","","",""
"","","","","","psychophysics","262","406558","0.0-13.0-86.0","457156","","1490","","","","","","","","","","","1","key","1","16.671887640449548","720","250","1"
"","","","","","html-keyboard-response","263","406611","0.0-13.0-87.0","457156","","52","","","","","","","","","","
    <p>How confident are you in your response? Press the corresponding keys from 1 to 5 based on your experience</p>
    <ul id=""confidence-levels"">
      <li id=""conf-1"">1: Not at all confident</li>
      <li id=""conf-2"">2: Slightly confident</li>
      <li id=""conf-3"">3: Somewhat confident</li>
      <li id=""conf-4"">4: Very confident</li>
      <li id=""conf-5"">5: Completely confident</li>
    </ul>","5","","","","","",""
"","","","","","psychophysics","264","408129","0.0-13.0-88.0","457156","","1512","","","","","","","","","","","1","key","1","16.666000000000317","720","250","1"
"","","","","","html-keyboard-response","265","408245","0.0-13.0-89.0","457156","","115","","","","","","","","","","
    <p>How confident are you in your response? Press the corresponding keys from 1 to 5 based on your experience</p>
    <ul id=""confidence-levels"">
      <li id=""conf-1"">1: Not at all confident</li>
      <li id=""conf-2"">2: Slightly confident</li>
      <li id=""conf-3"">3: Somewhat confident</li>
      <li id=""conf-4"">4: Very confident</li>
      <li id=""conf-5"">5: Completely confident</li>
    </ul>","5","","","","","",""
"","","","","","psychophysics","266","411104","0.0-13.0-90.0","457156","","2856","","","","","","","","","","","1","key","1","16.665999999999993","720","250","1"
"","","","","","html-keyboard-response","267","411195","0.0-13.0-91.0","457156","","91","","","","","","","","","","
    <p>How confident are you in your response? Press the corresponding keys from 1 to 5 based on your experience</p>
    <ul id=""confidence-levels"">
      <li id=""conf-1"">1: Not at all confident</li>
      <li id=""conf-2"">2: Slightly confident</li>
      <li id=""conf-3"">3: Somewhat confident</li>
      <li id=""conf-4"">4: Very confident</li>
      <li id=""conf-5"">5: Completely confident</li>
    </ul>","5","","","","","",""
"","","","","","psychophysics","268","413624","0.0-13.0-92.0","457156","","2419","","","","","","","","","","","1","key","1","16.666000000000047","720","250","1"
"","","","","","html-keyboard-response","269","413801","0.0-13.0-93.0","457156","","176","","","","","","","","","","
    <p>How confident are you in your response? Press the corresponding keys from 1 to 5 based on your experience</p>
    <ul id=""confidence-levels"">
      <li id=""conf-1"">1: Not at all confident</li>
      <li id=""conf-2"">2: Slightly confident</li>
      <li id=""conf-3"">3: Somewhat confident</li>
      <li id=""conf-4"">4: Very confident</li>
      <li id=""conf-5"">5: Completely confident</li>
    </ul>","5","","","","","",""
"","","","","","psychophysics","270","414929","0.0-13.0-94.0","457156","","1123","","","","","","","","","","","1","key","1","16.66599999999961","720","250","1"
"","","","","","html-keyboard-response","271","415261","0.0-13.0-95.0","457156","","332","","","","","","","","","","
    <p>How confident are you in your response? Press the corresponding keys from 1 to 5 based on your experience</p>
    <ul id=""confidence-levels"">
      <li id=""conf-1"">1: Not at all confident</li>
      <li id=""conf-2"">2: Slightly confident</li>
      <li id=""conf-3"">3: Somewhat confident</li>
      <li id=""conf-4"">4: Very confident</li>
      <li id=""conf-5"">5: Completely confident</li>
    </ul>","5","","","","","",""
"","","","","","psychophysics","272","416194","0.0-13.0-96.0","457156","","923","","","","","","","","","","","1","key","1","16.666000000000086","720","250","1"
"","","","","","html-keyboard-response","273","416311","0.0-13.0-97.0","457156","","116","","","","","","","","","","
    <p>How confident are you in your response? Press the corresponding keys from 1 to 5 based on your experience</p>
    <ul id=""confidence-levels"">
      <li id=""conf-1"">1: Not at all confident</li>
      <li id=""conf-2"">2: Slightly confident</li>
      <li id=""conf-3"">3: Somewhat confident</li>
      <li id=""conf-4"">4: Very confident</li>
      <li id=""conf-5"">5: Completely confident</li>
    </ul>","5","","","","","",""
"","","","","","html-keyboard-response","274","418491","0.0-14.0","457156","","2180","","","","","","","","","","Your average response time is 846.592 ms You are doing great"," ","","","","","",""
"","","","","","survey-text","275","466740","0.0-15.0","457156","","48213","","","","","","","","","","","{""EasyToUnderstand"":""Yes! Good experiment"",""Suggestions"":""I think it was fine"",""Interface"":""Really impressive!"",""Perception"":""Yes. It does""}","","","","","",""
"","","","","","html-keyboard-response","276","471750","0.0-16.0","457156","","null","","","","","","","","","","You have successfully completed all the trials. Thank you for your time. Goodbye :)","null","","","","","",""
