"success","timeout","failed_images","failed_audio","failed_video","trial_type","trial_index","time_elapsed","internal_node_id","participant_id","view_history","rt","item_width_mm","item_height_mm","item_width_px","px2mm","view_dist_mm","item_width_deg","px2deg","win_width_deg","win_height_deg","stimulus","response","response_type","key_press","avg_frame_time","center_x","center_y","correct_response"
"true","false","[]","[]","[]","preload","0","26","0.0-0.0","565922","","","","","","","","","","","","","","","","","","",""
"","","","","","instructions","1","3464","0.0-1.0","565922","[{""page_index"":0,""viewing_time"":1214},{""page_index"":1,""viewing_time"":758},{""page_index"":2,""viewing_time"":1466}]","3438","","","","","","","","","","","","","","","","",""
"true","","","","","fullscreen","2","5247","0.0-2.0","565922","","","","","","","","","","","","","","","","","","",""
"","","","","","virtual-chinrest","3","28337","0.0-3.0","565922","","23089","85.6","53.98","441","5.15","535.69","9.13610946513028","48.26999957511032","29.832194171853978","18.645121357408737","","","","","","","",""
"","","","","","html-keyboard-response","4","29027","0.0-4.0","565922","","687","","","","","","","","","","This is just trial run, press Space bar to continue"," ","","","","","",""
"","","","","","psychophysics","5","31360","0.0-5.0-0.0","565922","","2326","","","","","","","","","","","1","key","1","11.46571428571429","720","250","1"
"","","","","","psychophysics","6","34573","0.0-5.0-1.0","565922","","3210","","","","","","","","","","","0","key","0","11.110902777777774","720","250","0"
"","","","","","psychophysics","7","35815","0.0-5.0-2.0","565922","","1239","","","","","","","","","","","1","key","1","11.11117117117114","720","250","1"
"","","","","","psychophysics","8","37205","0.0-5.0-3.0","565922","","1386","","","","","","","","","","","1","key","1","11.110483870967776","720","250","1"
"","","","","","psychophysics","9","40885","0.0-5.0-4.0","565922","","3679","","","","","","","","","","","0","key","0","11.110858895705519","720","250","0"
"","","","","","psychophysics","10","42412","0.0-5.0-5.0","565922","","1525","","","","","","","","","","","1","key","1","11.276444444444442","720","250","1"
"","","","","","psychophysics","11","43655","0.0-5.0-6.0","565922","","1238","","","","","","","","","","","1","key","1","11.1100900900901","720","250","1"
"","","","","","psychophysics","12","45923","0.0-5.0-7.0","565922","","2263","","","","","","","","","","","1","key","1","11.111133004926133","720","250","1"
"","","","","","html-keyboard-response","13","47300","0.0-6.0","565922","","1375","","","","","","","","","","You have successfully completed the pilot , Press Space bar to continue to main block of experiment"," ","","","","","",""
"","","","","","psychophysics","14","48934","0.0-7.0-0.0","565922","","1632","","","","","","","","","","","0","key","0","11.107210884353705","720","250","0"
"","","","","","html-keyboard-response","15","50222","0.0-7.0-1.0","565922","","1284","","","","","","","","","","
    <p>How confident are you in your response? Press the corresponding keys from 1 to 5 based on your experience</p>
    <ul id=""confidence-levels"">
      <li id=""conf-1"">1: Not at all confident</li>
      <li id=""conf-2"">2: Slightly confident</li>
      <li id=""conf-3"">3: Somewhat confident</li>
      <li id=""conf-4"">4: Very confident</li>
      <li id=""conf-5"">5: Completely confident</li>
    </ul>","5","","","","","",""
"","","","","","psychophysics","16","51913","0.0-7.0-2.0","565922","","1688","","","","","","","","","","","0","key","0","11.101578947368388","720","250","0"
"","","","","","html-keyboard-response","17","53303","0.0-7.0-3.0","565922","","1389","","","","","","","","","","
    <p>How confident are you in your response? Press the corresponding keys from 1 to 5 based on your experience</p>
    <ul id=""confidence-levels"">
      <li id=""conf-1"">1: Not at all confident</li>
      <li id=""conf-2"">2: Slightly confident</li>
      <li id=""conf-3"">3: Somewhat confident</li>
      <li id=""conf-4"">4: Very confident</li>
      <li id=""conf-5"">5: Completely confident</li>
    </ul>","5","","","","","",""
"","","","","","psychophysics","18","54703","0.0-7.0-4.0","565922","","1398","","","","","","","","","","","1","key","1","11.079682539682546","720","250","1"
"","","","","","html-keyboard-response","19","55701","0.0-7.0-5.0","565922","","998","","","","","","","","","","
    <p>How confident are you in your response? Press the corresponding keys from 1 to 5 based on your experience</p>
    <ul id=""confidence-levels"">
      <li id=""conf-1"">1: Not at all confident</li>
      <li id=""conf-2"">2: Slightly confident</li>
      <li id=""conf-3"">3: Somewhat confident</li>
      <li id=""conf-4"">4: Very confident</li>
      <li id=""conf-5"">5: Completely confident</li>
    </ul>","5","","","","","",""
"","","","","","psychophysics","20","56991","0.0-7.0-6.0","565922","","1288","","","","","","","","","","","1","key","1","11.09051724137931","720","250","1"
"","","","","","html-keyboard-response","21","57872","0.0-7.0-7.0","565922","","878","","","","","","","","","","
    <p>How confident are you in your response? Press the corresponding keys from 1 to 5 based on your experience</p>
    <ul id=""confidence-levels"">
      <li id=""conf-1"">1: Not at all confident</li>
      <li id=""conf-2"">2: Slightly confident</li>
      <li id=""conf-3"">3: Somewhat confident</li>
      <li id=""conf-4"">4: Very confident</li>
      <li id=""conf-5"">5: Completely confident</li>
    </ul>","5","","","","","",""
"","","","","","psychophysics","22","59451","0.0-7.0-8.0","565922","","1573","","","","","","","","","","","1","key","1","10.988251748251747","720","250","1"
"","","","","","html-keyboard-response","23","60628","0.0-7.0-9.0","565922","","1176","","","","","","","","","","
    <p>How confident are you in your response? Press the corresponding keys from 1 to 5 based on your experience</p>
    <ul id=""confidence-levels"">
      <li id=""conf-1"">1: Not at all confident</li>
      <li id=""conf-2"">2: Slightly confident</li>
      <li id=""conf-3"">3: Somewhat confident</li>
      <li id=""conf-4"">4: Very confident</li>
      <li id=""conf-5"">5: Completely confident</li>
    </ul>","5","","","","","",""
"","","","","","psychophysics","24","61716","0.0-7.0-10.0","565922","","1085","","","","","","","","","","","1","key","1","11.629032258064516","720","250","1"
"","","","","","html-keyboard-response","25","62543","0.0-7.0-11.0","565922","","826","","","","","","","","","","
    <p>How confident are you in your response? Press the corresponding keys from 1 to 5 based on your experience</p>
    <ul id=""confidence-levels"">
      <li id=""conf-1"">1: Not at all confident</li>
      <li id=""conf-2"">2: Slightly confident</li>
      <li id=""conf-3"">3: Somewhat confident</li>
      <li id=""conf-4"">4: Very confident</li>
      <li id=""conf-5"">5: Completely confident</li>
    </ul>","5","","","","","",""
"","","","","","psychophysics","26","63736","0.0-7.0-12.0","565922","","1190","","","","","","","","","","","1","key","1","11.108411214953257","720","250","1"
"","","","","","html-keyboard-response","27","64921","0.0-7.0-13.0","565922","","1183","","","","","","","","","","
    <p>How confident are you in your response? Press the corresponding keys from 1 to 5 based on your experience</p>
    <ul id=""confidence-levels"">
      <li id=""conf-1"">1: Not at all confident</li>
      <li id=""conf-2"">2: Slightly confident</li>
      <li id=""conf-3"">3: Somewhat confident</li>
      <li id=""conf-4"">4: Very confident</li>
      <li id=""conf-5"">5: Completely confident</li>
    </ul>","5","","","","","",""
"","","","","","psychophysics","28","66683","0.0-7.0-14.0","565922","","1757","","","","","","","","","","","1","key","1","11.039874213836455","720","250","1"
"","","","","","html-keyboard-response","29","67243","0.0-7.0-15.0","565922","","559","","","","","","","","","","
    <p>How confident are you in your response? Press the corresponding keys from 1 to 5 based on your experience</p>
    <ul id=""confidence-levels"">
      <li id=""conf-1"">1: Not at all confident</li>
      <li id=""conf-2"">2: Slightly confident</li>
      <li id=""conf-3"">3: Somewhat confident</li>
      <li id=""conf-4"">4: Very confident</li>
      <li id=""conf-5"">5: Completely confident</li>
    </ul>","5","","","","","",""
"","","","","","psychophysics","30","68471","0.0-7.0-16.0","565922","","1222","","","","","","","","","","","1","key","1","11.010270270270265","720","250","1"
"","","","","","html-keyboard-response","31","69385","0.0-7.0-17.0","565922","","914","","","","","","","","","","
    <p>How confident are you in your response? Press the corresponding keys from 1 to 5 based on your experience</p>
    <ul id=""confidence-levels"">
      <li id=""conf-1"">1: Not at all confident</li>
      <li id=""conf-2"">2: Slightly confident</li>
      <li id=""conf-3"">3: Somewhat confident</li>
      <li id=""conf-4"">4: Very confident</li>
      <li id=""conf-5"">5: Completely confident</li>
    </ul>","5","","","","","",""
"","","","","","psychophysics","32","70994","0.0-7.0-18.0","565922","","1604","","","","","","","","","","","0","key","0","11.046896551724158","720","250","0"
"","","","","","html-keyboard-response","33","71608","0.0-7.0-19.0","565922","","613","","","","","","","","","","
    <p>How confident are you in your response? Press the corresponding keys from 1 to 5 based on your experience</p>
    <ul id=""confidence-levels"">
      <li id=""conf-1"">1: Not at all confident</li>
      <li id=""conf-2"">2: Slightly confident</li>
      <li id=""conf-3"">3: Somewhat confident</li>
      <li id=""conf-4"">4: Very confident</li>
      <li id=""conf-5"">5: Completely confident</li>
    </ul>","5","","","","","",""
"","","","","","psychophysics","34","73637","0.0-7.0-20.0","565922","","2020","","","","","","","","","","","1","key","1","11.176022099447517","720","250","1"
"","","","","","html-keyboard-response","35","74340","0.0-7.0-21.0","565922","","700","","","","","","","","","","
    <p>How confident are you in your response? Press the corresponding keys from 1 to 5 based on your experience</p>
    <ul id=""confidence-levels"">
      <li id=""conf-1"">1: Not at all confident</li>
      <li id=""conf-2"">2: Slightly confident</li>
      <li id=""conf-3"">3: Somewhat confident</li>
      <li id=""conf-4"">4: Very confident</li>
      <li id=""conf-5"">5: Completely confident</li>
    </ul>","5","","","","","",""
"","","","","","psychophysics","36","75445","0.0-7.0-22.0","565922","","1099","","","","","","","","","","","1","key","1","11.028600000000006","720","250","1"
"","","","","","html-keyboard-response","37","76228","0.0-7.0-23.0","565922","","782","","","","","","","","","","
    <p>How confident are you in your response? Press the corresponding keys from 1 to 5 based on your experience</p>
    <ul id=""confidence-levels"">
      <li id=""conf-1"">1: Not at all confident</li>
      <li id=""conf-2"">2: Slightly confident</li>
      <li id=""conf-3"">3: Somewhat confident</li>
      <li id=""conf-4"">4: Very confident</li>
      <li id=""conf-5"">5: Completely confident</li>
    </ul>","5","","","","","",""
"","","","","","psychophysics","38","77210","0.0-7.0-24.0","565922","","975","","","","","","","","","","","1","key","1","11.02863636363641","720","250","1"
"","","","","","html-keyboard-response","39","77714","0.0-7.0-25.0","565922","","502","","","","","","","","","","
    <p>How confident are you in your response? Press the corresponding keys from 1 to 5 based on your experience</p>
    <ul id=""confidence-levels"">
      <li id=""conf-1"">1: Not at all confident</li>
      <li id=""conf-2"">2: Slightly confident</li>
      <li id=""conf-3"">3: Somewhat confident</li>
      <li id=""conf-4"">4: Very confident</li>
      <li id=""conf-5"">5: Completely confident</li>
    </ul>","5","","","","","",""
"","","","","","psychophysics","40","78774","0.0-7.0-26.0","565922","","1054","","","","","","","","","","","1","key","1","10.955416666666679","720","250","1"
"","","","","","html-keyboard-response","41","79436","0.0-7.0-27.0","565922","","662","","","","","","","","","","
    <p>How confident are you in your response? Press the corresponding keys from 1 to 5 based on your experience</p>
    <ul id=""confidence-levels"">
      <li id=""conf-1"">1: Not at all confident</li>
      <li id=""conf-2"">2: Slightly confident</li>
      <li id=""conf-3"">3: Somewhat confident</li>
      <li id=""conf-4"">4: Very confident</li>
      <li id=""conf-5"">5: Completely confident</li>
    </ul>","5","","","","","",""
"","","","","","psychophysics","42","80556","0.0-7.0-28.0","565922","","1113","","","","","","","","","","","1","key","1","10.951568627450957","720","250","1"
"","","","","","html-keyboard-response","43","81030","0.0-7.0-29.0","565922","","472","","","","","","","","","","
    <p>How confident are you in your response? Press the corresponding keys from 1 to 5 based on your experience</p>
    <ul id=""confidence-levels"">
      <li id=""conf-1"">1: Not at all confident</li>
      <li id=""conf-2"">2: Slightly confident</li>
      <li id=""conf-3"">3: Somewhat confident</li>
      <li id=""conf-4"">4: Very confident</li>
      <li id=""conf-5"">5: Completely confident</li>
    </ul>","5","","","","","",""
"","","","","","psychophysics","44","82607","0.0-7.0-30.0","565922","","1570","","","","","","","","","","","0","key","0","12.063230769230778","720","250","1"
"","","","","","html-keyboard-response","45","83425","0.0-7.0-31.0","565922","","816","","","","","","","","","","
    <p>How confident are you in your response? Press the corresponding keys from 1 to 5 based on your experience</p>
    <ul id=""confidence-levels"">
      <li id=""conf-1"">1: Not at all confident</li>
      <li id=""conf-2"">2: Slightly confident</li>
      <li id=""conf-3"">3: Somewhat confident</li>
      <li id=""conf-4"">4: Very confident</li>
      <li id=""conf-5"">5: Completely confident</li>
    </ul>","5","","","","","",""
"","","","","","psychophysics","46","84639","0.0-7.0-32.0","565922","","1207","","","","","","","","","","","1","key","1","11.065871559632964","720","250","1"
"","","","","","html-keyboard-response","47","85024","0.0-7.0-33.0","565922","","385","","","","","","","","","","
    <p>How confident are you in your response? Press the corresponding keys from 1 to 5 based on your experience</p>
    <ul id=""confidence-levels"">
      <li id=""conf-1"">1: Not at all confident</li>
      <li id=""conf-2"">2: Slightly confident</li>
      <li id=""conf-3"">3: Somewhat confident</li>
      <li id=""conf-4"">4: Very confident</li>
      <li id=""conf-5"">5: Completely confident</li>
    </ul>","5","","","","","",""
"","","","","","psychophysics","48","86899","0.0-7.0-34.0","565922","","1869","","","","","","","","","","","1","key","1","11.020710059171599","720","250","1"
"","","","","","html-keyboard-response","49","87503","0.0-7.0-35.0","565922","","604","","","","","","","","","","
    <p>How confident are you in your response? Press the corresponding keys from 1 to 5 based on your experience</p>
    <ul id=""confidence-levels"">
      <li id=""conf-1"">1: Not at all confident</li>
      <li id=""conf-2"">2: Slightly confident</li>
      <li id=""conf-3"">3: Somewhat confident</li>
      <li id=""conf-4"">4: Very confident</li>
      <li id=""conf-5"">5: Completely confident</li>
    </ul>","5","","","","","",""
"","","","","","psychophysics","50","88650","0.0-7.0-36.0","565922","","1145","","","","","","","","","","","1","key","1","11.070097087378652","720","250","1"
"","","","","","html-keyboard-response","51","89606","0.0-7.0-37.0","565922","","956","","","","","","","","","","
    <p>How confident are you in your response? Press the corresponding keys from 1 to 5 based on your experience</p>
    <ul id=""confidence-levels"">
      <li id=""conf-1"">1: Not at all confident</li>
      <li id=""conf-2"">2: Slightly confident</li>
      <li id=""conf-3"">3: Somewhat confident</li>
      <li id=""conf-4"">4: Very confident</li>
      <li id=""conf-5"">5: Completely confident</li>
    </ul>","5","","","","","",""
"","","","","","psychophysics","52","90922","0.0-7.0-38.0","565922","","1307","","","","","","","","","","","0","key","0","11.046101694915274","720","250","0"
"","","","","","html-keyboard-response","53","91887","0.0-7.0-39.0","565922","","964","","","","","","","","","","
    <p>How confident are you in your response? Press the corresponding keys from 1 to 5 based on your experience</p>
    <ul id=""confidence-levels"">
      <li id=""conf-1"">1: Not at all confident</li>
      <li id=""conf-2"">2: Slightly confident</li>
      <li id=""conf-3"">3: Somewhat confident</li>
      <li id=""conf-4"">4: Very confident</li>
      <li id=""conf-5"">5: Completely confident</li>
    </ul>","5","","","","","",""
"","","","","","psychophysics","54","93095","0.0-7.0-40.0","565922","","1202","","","","","","","","","","","1","key","1","11.003669724770722","720","250","1"
"","","","","","html-keyboard-response","55","93790","0.0-7.0-41.0","565922","","693","","","","","","","","","","
    <p>How confident are you in your response? Press the corresponding keys from 1 to 5 based on your experience</p>
    <ul id=""confidence-levels"">
      <li id=""conf-1"">1: Not at all confident</li>
      <li id=""conf-2"">2: Slightly confident</li>
      <li id=""conf-3"">3: Somewhat confident</li>
      <li id=""conf-4"">4: Very confident</li>
      <li id=""conf-5"">5: Completely confident</li>
    </ul>","5","","","","","",""
"","","","","","psychophysics","56","94922","0.0-7.0-42.0","565922","","1123","","","","","","","","","","","1","key","1","11.082745098039238","720","250","1"
"","","","","","html-keyboard-response","57","95366","0.0-7.0-43.0","565922","","444","","","","","","","","","","
    <p>How confident are you in your response? Press the corresponding keys from 1 to 5 based on your experience</p>
    <ul id=""confidence-levels"">
      <li id=""conf-1"">1: Not at all confident</li>
      <li id=""conf-2"">2: Slightly confident</li>
      <li id=""conf-3"">3: Somewhat confident</li>
      <li id=""conf-4"">4: Very confident</li>
      <li id=""conf-5"">5: Completely confident</li>
    </ul>","5","","","","","",""
"","","","","","psychophysics","58","96747","0.0-7.0-44.0","565922","","1374","","","","","","","","","","","0","key","0","11.006560000000055","720","250","0"
"","","","","","html-keyboard-response","59","97417","0.0-7.0-45.0","565922","","669","","","","","","","","","","
    <p>How confident are you in your response? Press the corresponding keys from 1 to 5 based on your experience</p>
    <ul id=""confidence-levels"">
      <li id=""conf-1"">1: Not at all confident</li>
      <li id=""conf-2"">2: Slightly confident</li>
      <li id=""conf-3"">3: Somewhat confident</li>
      <li id=""conf-4"">4: Very confident</li>
      <li id=""conf-5"">5: Completely confident</li>
    </ul>","5","","","","","",""
"","","","","","psychophysics","60","98467","0.0-7.0-46.0","565922","","1045","","","","","","","","","","","1","key","1","10.914791666666739","720","250","1"
"","","","","","html-keyboard-response","61","99641","0.0-7.0-47.0","565922","","1172","","","","","","","","","","
    <p>How confident are you in your response? Press the corresponding keys from 1 to 5 based on your experience</p>
    <ul id=""confidence-levels"">
      <li id=""conf-1"">1: Not at all confident</li>
      <li id=""conf-2"">2: Slightly confident</li>
      <li id=""conf-3"">3: Somewhat confident</li>
      <li id=""conf-4"">4: Very confident</li>
      <li id=""conf-5"">5: Completely confident</li>
    </ul>","5","","","","","",""
"","","","","","psychophysics","62","100944","0.0-7.0-48.0","565922","","1299","","","","","","","","","","","1","key","1","11.033050847457702","720","250","1"
"","","","","","html-keyboard-response","63","101582","0.0-7.0-49.0","565922","","637","","","","","","","","","","
    <p>How confident are you in your response? Press the corresponding keys from 1 to 5 based on your experience</p>
    <ul id=""confidence-levels"">
      <li id=""conf-1"">1: Not at all confident</li>
      <li id=""conf-2"">2: Slightly confident</li>
      <li id=""conf-3"">3: Somewhat confident</li>
      <li id=""conf-4"">4: Very confident</li>
      <li id=""conf-5"">5: Completely confident</li>
    </ul>","5","","","","","",""
"","","","","","psychophysics","64","102988","0.0-7.0-50.0","565922","","1399","","","","","","","","","","","0","key","0","10.969921259842579","720","250","0"
"","","","","","html-keyboard-response","65","103638","0.0-7.0-51.0","565922","","647","","","","","","","","","","
    <p>How confident are you in your response? Press the corresponding keys from 1 to 5 based on your experience</p>
    <ul id=""confidence-levels"">
      <li id=""conf-1"">1: Not at all confident</li>
      <li id=""conf-2"">2: Slightly confident</li>
      <li id=""conf-3"">3: Somewhat confident</li>
      <li id=""conf-4"">4: Very confident</li>
      <li id=""conf-5"">5: Completely confident</li>
    </ul>","5","","","","","",""
"","","","","","psychophysics","66","104815","0.0-7.0-52.0","565922","","1168","","","","","","","","","","","1","key","1","11.04754716981126","720","250","1"
"","","","","","html-keyboard-response","67","105228","0.0-7.0-53.0","565922","","412","","","","","","","","","","
    <p>How confident are you in your response? Press the corresponding keys from 1 to 5 based on your experience</p>
    <ul id=""confidence-levels"">
      <li id=""conf-1"">1: Not at all confident</li>
      <li id=""conf-2"">2: Slightly confident</li>
      <li id=""conf-3"">3: Somewhat confident</li>
      <li id=""conf-4"">4: Very confident</li>
      <li id=""conf-5"">5: Completely confident</li>
    </ul>","5","","","","","",""
"","","","","","psychophysics","68","107089","0.0-7.0-54.0","565922","","1858","","","","","","","","","","","0","key","0","13.277285714285764","720","250","0"
"","","","","","html-keyboard-response","69","107550","0.0-7.0-55.0","565922","","461","","","","","","","","","","
    <p>How confident are you in your response? Press the corresponding keys from 1 to 5 based on your experience</p>
    <ul id=""confidence-levels"">
      <li id=""conf-1"">1: Not at all confident</li>
      <li id=""conf-2"">2: Slightly confident</li>
      <li id=""conf-3"">3: Somewhat confident</li>
      <li id=""conf-4"">4: Very confident</li>
      <li id=""conf-5"">5: Completely confident</li>
    </ul>","5","","","","","",""
"","","","","","psychophysics","70","108631","0.0-7.0-56.0","565922","","1075","","","","","","","","","","","1","key","1","10.921224489795906","720","250","1"
"","","","","","html-keyboard-response","71","109647","0.0-7.0-57.0","565922","","1014","","","","","","","","","","
    <p>How confident are you in your response? Press the corresponding keys from 1 to 5 based on your experience</p>
    <ul id=""confidence-levels"">
      <li id=""conf-1"">1: Not at all confident</li>
      <li id=""conf-2"">2: Slightly confident</li>
      <li id=""conf-3"">3: Somewhat confident</li>
      <li id=""conf-4"">4: Very confident</li>
      <li id=""conf-5"">5: Completely confident</li>
    </ul>","5","","","","","",""
"","","","","","psychophysics","72","110866","0.0-7.0-58.0","565922","","1215","","","","","","","","","","","1","key","1","11.06309090909093","720","250","1"
"","","","","","html-keyboard-response","73","111233","0.0-7.0-59.0","565922","","366","","","","","","","","","","
    <p>How confident are you in your response? Press the corresponding keys from 1 to 5 based on your experience</p>
    <ul id=""confidence-levels"">
      <li id=""conf-1"">1: Not at all confident</li>
      <li id=""conf-2"">2: Slightly confident</li>
      <li id=""conf-3"">3: Somewhat confident</li>
      <li id=""conf-4"">4: Very confident</li>
      <li id=""conf-5"">5: Completely confident</li>
    </ul>","5","","","","","",""
"","","","","","psychophysics","74","112225","0.0-7.0-60.0","565922","","984","","","","","","","","","","","1","key","1","10.962444444444392","720","250","1"
"","","","","","html-keyboard-response","75","112555","0.0-7.0-61.0","565922","","327","","","","","","","","","","
    <p>How confident are you in your response? Press the corresponding keys from 1 to 5 based on your experience</p>
    <ul id=""confidence-levels"">
      <li id=""conf-1"">1: Not at all confident</li>
      <li id=""conf-2"">2: Slightly confident</li>
      <li id=""conf-3"">3: Somewhat confident</li>
      <li id=""conf-4"">4: Very confident</li>
      <li id=""conf-5"">5: Completely confident</li>
    </ul>","5","","","","","",""
"","","","","","psychophysics","76","113902","0.0-7.0-62.0","565922","","1338","","","","","","","","","","","1","key","1","11.011639344262282","720","250","1"
"","","","","","html-keyboard-response","77","114289","0.0-7.0-63.0","565922","","385","","","","","","","","","","
    <p>How confident are you in your response? Press the corresponding keys from 1 to 5 based on your experience</p>
    <ul id=""confidence-levels"">
      <li id=""conf-1"">1: Not at all confident</li>
      <li id=""conf-2"">2: Slightly confident</li>
      <li id=""conf-3"">3: Somewhat confident</li>
      <li id=""conf-4"">4: Very confident</li>
      <li id=""conf-5"">5: Completely confident</li>
    </ul>","5","","","","","",""
"","","","","","psychophysics","78","115754","0.0-7.0-64.0","565922","","1459","","","","","","","","","","","1","key","1","11.011060606060655","720","250","1"
"","","","","","html-keyboard-response","79","116000","0.0-7.0-65.0","565922","","246","","","","","","","","","","
    <p>How confident are you in your response? Press the corresponding keys from 1 to 5 based on your experience</p>
    <ul id=""confidence-levels"">
      <li id=""conf-1"">1: Not at all confident</li>
      <li id=""conf-2"">2: Slightly confident</li>
      <li id=""conf-3"">3: Somewhat confident</li>
      <li id=""conf-4"">4: Very confident</li>
      <li id=""conf-5"">5: Completely confident</li>
    </ul>","5","","","","","",""
"","","","","","psychophysics","80","117623","0.0-7.0-66.0","565922","","1616","","","","","","","","","","","0","key","0","11.488226950354585","720","250","1"
"","","","","","html-keyboard-response","81","118006","0.0-7.0-67.0","565922","","381","","","","","","","","","","
    <p>How confident are you in your response? Press the corresponding keys from 1 to 5 based on your experience</p>
    <ul id=""confidence-levels"">
      <li id=""conf-1"">1: Not at all confident</li>
      <li id=""conf-2"">2: Slightly confident</li>
      <li id=""conf-3"">3: Somewhat confident</li>
      <li id=""conf-4"">4: Very confident</li>
      <li id=""conf-5"">5: Completely confident</li>
    </ul>","5","","","","","",""
"","","","","","psychophysics","82","119524","0.0-7.0-68.0","565922","","1510","","","","","","","","","","","0","key","0","10.974782608695577","720","250","0"
"","","","","","html-keyboard-response","83","119810","0.0-7.0-69.0","565922","","285","","","","","","","","","","
    <p>How confident are you in your response? Press the corresponding keys from 1 to 5 based on your experience</p>
    <ul id=""confidence-levels"">
      <li id=""conf-1"">1: Not at all confident</li>
      <li id=""conf-2"">2: Slightly confident</li>
      <li id=""conf-3"">3: Somewhat confident</li>
      <li id=""conf-4"">4: Very confident</li>
      <li id=""conf-5"">5: Completely confident</li>
    </ul>","5","","","","","",""
"","","","","","psychophysics","84","120786","0.0-7.0-70.0","565922","","970","","","","","","","","","","","0","key","0","10.972045454545382","720","250","1"
"","","","","","html-keyboard-response","85","122882","0.0-7.0-71.0","565922","","2095","","","","","","","","","","
    <p>How confident are you in your response? Press the corresponding keys from 1 to 5 based on your experience</p>
    <ul id=""confidence-levels"">
      <li id=""conf-1"">1: Not at all confident</li>
      <li id=""conf-2"">2: Slightly confident</li>
      <li id=""conf-3"">3: Somewhat confident</li>
      <li id=""conf-4"">4: Very confident</li>
      <li id=""conf-5"">5: Completely confident</li>
    </ul>","1","","","","","",""
"","","","","","psychophysics","86","124591","0.0-7.0-72.0","565922","","1705","","","","","","","","","","","0","key","0","11.068181818181818","720","250","0"
"","","","","","html-keyboard-response","87","125471","0.0-7.0-73.0","565922","","879","","","","","","","","","","
    <p>How confident are you in your response? Press the corresponding keys from 1 to 5 based on your experience</p>
    <ul id=""confidence-levels"">
      <li id=""conf-1"">1: Not at all confident</li>
      <li id=""conf-2"">2: Slightly confident</li>
      <li id=""conf-3"">3: Somewhat confident</li>
      <li id=""conf-4"">4: Very confident</li>
      <li id=""conf-5"">5: Completely confident</li>
    </ul>","5","","","","","",""
"","","","","","psychophysics","88","126585","0.0-7.0-74.0","565922","","1111","","","","","","","","","","","0","key","0","11.041600000000034","720","250","0"
"","","","","","html-keyboard-response","89","127057","0.0-7.0-75.0","565922","","472","","","","","","","","","","
    <p>How confident are you in your response? Press the corresponding keys from 1 to 5 based on your experience</p>
    <ul id=""confidence-levels"">
      <li id=""conf-1"">1: Not at all confident</li>
      <li id=""conf-2"">2: Slightly confident</li>
      <li id=""conf-3"">3: Somewhat confident</li>
      <li id=""conf-4"">4: Very confident</li>
      <li id=""conf-5"">5: Completely confident</li>
    </ul>","5","","","","","",""
"","","","","","psychophysics","90","128904","0.0-7.0-76.0","565922","","1842","","","","","","","","","","","1","key","1","11.022155688622737","720","250","1"
"","","","","","html-keyboard-response","91","129632","0.0-7.0-77.0","565922","","728","","","","","","","","","","
    <p>How confident are you in your response? Press the corresponding keys from 1 to 5 based on your experience</p>
    <ul id=""confidence-levels"">
      <li id=""conf-1"">1: Not at all confident</li>
      <li id=""conf-2"">2: Slightly confident</li>
      <li id=""conf-3"">3: Somewhat confident</li>
      <li id=""conf-4"">4: Very confident</li>
      <li id=""conf-5"">5: Completely confident</li>
    </ul>","5","","","","","",""
"","","","","","psychophysics","92","130779","0.0-7.0-78.0","565922","","1144","","","","","","","","","","","1","key","1","11.09533980582517","720","250","1"
"","","","","","html-keyboard-response","93","131448","0.0-7.0-79.0","565922","","668","","","","","","","","","","
    <p>How confident are you in your response? Press the corresponding keys from 1 to 5 based on your experience</p>
    <ul id=""confidence-levels"">
      <li id=""conf-1"">1: Not at all confident</li>
      <li id=""conf-2"">2: Slightly confident</li>
      <li id=""conf-3"">3: Somewhat confident</li>
      <li id=""conf-4"">4: Very confident</li>
      <li id=""conf-5"">5: Completely confident</li>
    </ul>","5","","","","","",""
"","","","","","html-keyboard-response","94","134934","0.0-8.0","565922","","3487","","","","","","","","","","Your average response time is  4221.059 ms You are doing great"," ","","","","","",""
"","","","","","html-button-response","95","515400","0.0-9.0","565922","","380465","","","","","","","","","","<p>You have successfully completed one block of the experiment. The next part of the experiment can be started in <span id=""clock"">1:00</span> <br>You can take a break for a minute or more if you like and Press continue when you are ready","0","","","","","",""
"","","","","","psychophysics","96","519922","0.0-10.0-0.0","565922","","4513","","","","","","","","","","","0","key","0","11.086388206388143","720","250","2"
"","","","","","html-keyboard-response","97","520795","0.0-10.0-1.0","565922","","871","","","","","","","","","","
    <p>How confident are you in your response? Press the corresponding keys from 1 to 5 based on your experience</p>
    <ul id=""confidence-levels"">
      <li id=""conf-1"">1: Not at all confident</li>
      <li id=""conf-2"">2: Slightly confident</li>
      <li id=""conf-3"">3: Somewhat confident</li>
      <li id=""conf-4"">4: Very confident</li>
      <li id=""conf-5"">5: Completely confident</li>
    </ul>","5","","","","","",""
"","","","","","psychophysics","98","522384","0.0-10.0-2.0","565922","","1584","","","","","","","","","","","1","key","1","11.073146853147","720","250","1"
"","","","","","html-keyboard-response","99","523164","0.0-10.0-3.0","565922","","778","","","","","","","","","","
    <p>How confident are you in your response? Press the corresponding keys from 1 to 5 based on your experience</p>
    <ul id=""confidence-levels"">
      <li id=""conf-1"">1: Not at all confident</li>
      <li id=""conf-2"">2: Slightly confident</li>
      <li id=""conf-3"">3: Somewhat confident</li>
      <li id=""conf-4"">4: Very confident</li>
      <li id=""conf-5"">5: Completely confident</li>
    </ul>","5","","","","","",""
"","","","","","psychophysics","100","524364","0.0-10.0-4.0","565922","","1195","","","","","","","","","","","1","key","1","15.675526315789044","720","250","1"
"","","","","","html-keyboard-response","101","524862","0.0-10.0-5.0","565922","","496","","","","","","","","","","
    <p>How confident are you in your response? Press the corresponding keys from 1 to 5 based on your experience</p>
    <ul id=""confidence-levels"">
      <li id=""conf-1"">1: Not at all confident</li>
      <li id=""conf-2"">2: Slightly confident</li>
      <li id=""conf-3"">3: Somewhat confident</li>
      <li id=""conf-4"">4: Very confident</li>
      <li id=""conf-5"">5: Completely confident</li>
    </ul>","5","","","","","",""
"","","","","","psychophysics","102","526868","0.0-10.0-6.0","565922","","2001","","","","","","","","","","","1","key","1","11.202346368714927","720","250","2"
"","","","","","html-keyboard-response","103","527197","0.0-10.0-7.0","565922","","327","","","","","","","","","","
    <p>How confident are you in your response? Press the corresponding keys from 1 to 5 based on your experience</p>
    <ul id=""confidence-levels"">
      <li id=""conf-1"">1: Not at all confident</li>
      <li id=""conf-2"">2: Slightly confident</li>
      <li id=""conf-3"">3: Somewhat confident</li>
      <li id=""conf-4"">4: Very confident</li>
      <li id=""conf-5"">5: Completely confident</li>
    </ul>","5","","","","","",""
"","","","","","psychophysics","104","528390","0.0-10.0-8.0","565922","","1187","","","","","","","","","","","1","key","1","10.936851851851248","720","250","2"
"","","","","","html-keyboard-response","105","528637","0.0-10.0-9.0","565922","","246","","","","","","","","","","
    <p>How confident are you in your response? Press the corresponding keys from 1 to 5 based on your experience</p>
    <ul id=""confidence-levels"">
      <li id=""conf-1"">1: Not at all confident</li>
      <li id=""conf-2"">2: Slightly confident</li>
      <li id=""conf-3"">3: Somewhat confident</li>
      <li id=""conf-4"">4: Very confident</li>
      <li id=""conf-5"">5: Completely confident</li>
    </ul>","5","","","","","",""
"","","","","","psychophysics","106","530971","0.0-10.0-10.0","565922","","2326","","","","","","","","","","","1","key","1","11.042559241706073","720","250","2"
"","","","","","html-keyboard-response","107","531374","0.0-10.0-11.0","565922","","401","","","","","","","","","","
    <p>How confident are you in your response? Press the corresponding keys from 1 to 5 based on your experience</p>
    <ul id=""confidence-levels"">
      <li id=""conf-1"">1: Not at all confident</li>
      <li id=""conf-2"">2: Slightly confident</li>
      <li id=""conf-3"">3: Somewhat confident</li>
      <li id=""conf-4"">4: Very confident</li>
      <li id=""conf-5"">5: Completely confident</li>
    </ul>","5","","","","","",""
"","","","","","psychophysics","108","533377","0.0-10.0-12.0","565922","","2001","","","","","","","","","","","1","key","1","11.069444444444445","720","250","2"
"","","","","","html-keyboard-response","109","534344","0.0-10.0-13.0","565922","","967","","","","","","","","","","
    <p>How confident are you in your response? Press the corresponding keys from 1 to 5 based on your experience</p>
    <ul id=""confidence-levels"">
      <li id=""conf-1"">1: Not at all confident</li>
      <li id=""conf-2"">2: Slightly confident</li>
      <li id=""conf-3"">3: Somewhat confident</li>
      <li id=""conf-4"">4: Very confident</li>
      <li id=""conf-5"">5: Completely confident</li>
    </ul>","5","","","","","",""
"","","","","","psychophysics","110","541005","0.0-10.0-14.0","565922","","6655","","","","","","","","","","","2","key","2","11.093766666666681","720","250","2"
"","","","","","html-keyboard-response","111","541673","0.0-10.0-15.0","565922","","667","","","","","","","","","","
    <p>How confident are you in your response? Press the corresponding keys from 1 to 5 based on your experience</p>
    <ul id=""confidence-levels"">
      <li id=""conf-1"">1: Not at all confident</li>
      <li id=""conf-2"">2: Slightly confident</li>
      <li id=""conf-3"">3: Somewhat confident</li>
      <li id=""conf-4"">4: Very confident</li>
      <li id=""conf-5"">5: Completely confident</li>
    </ul>","5","","","","","",""
"","","","","","psychophysics","112","543128","0.0-10.0-16.0","565922","","1448","","","","","","","","","","","1","key","1","10.976666666666985","720","250","1"
"","","","","","html-keyboard-response","113","544543","0.0-10.0-17.0","565922","","1414","","","","","","","","","","
    <p>How confident are you in your response? Press the corresponding keys from 1 to 5 based on your experience</p>
    <ul id=""confidence-levels"">
      <li id=""conf-1"">1: Not at all confident</li>
      <li id=""conf-2"">2: Slightly confident</li>
      <li id=""conf-3"">3: Somewhat confident</li>
      <li id=""conf-4"">4: Very confident</li>
      <li id=""conf-5"">5: Completely confident</li>
    </ul>","5","","","","","",""
"","","","","","psychophysics","114","547602","0.0-10.0-18.0","565922","","3053","","","","","","","","","","","1","key","1","11.076449275362235","720","250","1"
"","","","","","html-keyboard-response","115","548182","0.0-10.0-19.0","565922","","580","","","","","","","","","","
    <p>How confident are you in your response? Press the corresponding keys from 1 to 5 based on your experience</p>
    <ul id=""confidence-levels"">
      <li id=""conf-1"">1: Not at all confident</li>
      <li id=""conf-2"">2: Slightly confident</li>
      <li id=""conf-3"">3: Somewhat confident</li>
      <li id=""conf-4"">4: Very confident</li>
      <li id=""conf-5"">5: Completely confident</li>
    </ul>","5","","","","","",""
"","","","","","psychophysics","116","550074","0.0-10.0-20.0","565922","","1889","","","","","","","","","","","1","key","1","12.314640522875909","720","250","2"
"","","","","","html-keyboard-response","117","550415","0.0-10.0-21.0","565922","","341","","","","","","","","","","
    <p>How confident are you in your response? Press the corresponding keys from 1 to 5 based on your experience</p>
    <ul id=""confidence-levels"">
      <li id=""conf-1"">1: Not at all confident</li>
      <li id=""conf-2"">2: Slightly confident</li>
      <li id=""conf-3"">3: Somewhat confident</li>
      <li id=""conf-4"">4: Very confident</li>
      <li id=""conf-5"">5: Completely confident</li>
    </ul>","5","","","","","",""
"","","","","","psychophysics","118","551685","0.0-10.0-22.0","565922","","1263","","","","","","","","","","","1","key","1","10.980521739130516","720","250","2"
"","","","","","html-keyboard-response","119","552013","0.0-10.0-23.0","565922","","328","","","","","","","","","","
    <p>How confident are you in your response? Press the corresponding keys from 1 to 5 based on your experience</p>
    <ul id=""confidence-levels"">
      <li id=""conf-1"">1: Not at all confident</li>
      <li id=""conf-2"">2: Slightly confident</li>
      <li id=""conf-3"">3: Somewhat confident</li>
      <li id=""conf-4"">4: Very confident</li>
      <li id=""conf-5"">5: Completely confident</li>
    </ul>","5","","","","","",""
"","","","","","psychophysics","120","553080","0.0-10.0-24.0","565922","","1061","","","","","","","","","","","1","key","1","10.978350515464157","720","250","2"
"","","","","","html-keyboard-response","121","553370","0.0-10.0-25.0","565922","","289","","","","","","","","","","
    <p>How confident are you in your response? Press the corresponding keys from 1 to 5 based on your experience</p>
    <ul id=""confidence-levels"">
      <li id=""conf-1"">1: Not at all confident</li>
      <li id=""conf-2"">2: Slightly confident</li>
      <li id=""conf-3"">3: Somewhat confident</li>
      <li id=""conf-4"">4: Very confident</li>
      <li id=""conf-5"">5: Completely confident</li>
    </ul>","5","","","","","",""
"","","","","","psychophysics","122","554510","0.0-10.0-26.0","565922","","1134","","","","","","","","","","","1","key","1","10.96368932038844","720","250","2"
"","","","","","html-keyboard-response","123","554803","0.0-10.0-27.0","565922","","293","","","","","","","","","","
    <p>How confident are you in your response? Press the corresponding keys from 1 to 5 based on your experience</p>
    <ul id=""confidence-levels"">
      <li id=""conf-1"">1: Not at all confident</li>
      <li id=""conf-2"">2: Slightly confident</li>
      <li id=""conf-3"">3: Somewhat confident</li>
      <li id=""conf-4"">4: Very confident</li>
      <li id=""conf-5"">5: Completely confident</li>
    </ul>","5","","","","","",""
"","","","","","psychophysics","124","555931","0.0-10.0-28.0","565922","","1121","","","","","","","","","","","1","key","1","10.96509803921628","720","250","2"
"","","","","","html-keyboard-response","125","556394","0.0-10.0-29.0","565922","","463","","","","","","","","","","
    <p>How confident are you in your response? Press the corresponding keys from 1 to 5 based on your experience</p>
    <ul id=""confidence-levels"">
      <li id=""conf-1"">1: Not at all confident</li>
      <li id=""conf-2"">2: Slightly confident</li>
      <li id=""conf-3"">3: Somewhat confident</li>
      <li id=""conf-4"">4: Very confident</li>
      <li id=""conf-5"">5: Completely confident</li>
    </ul>","5","","","","","",""
"","","","","","psychophysics","126","557524","0.0-10.0-30.0","565922","","1120","","","","","","","","","","","1","key","1","10.946407766990111","720","250","2"
"","","","","","html-keyboard-response","127","557792","0.0-10.0-31.0","565922","","267","","","","","","","","","","
    <p>How confident are you in your response? Press the corresponding keys from 1 to 5 based on your experience</p>
    <ul id=""confidence-levels"">
      <li id=""conf-1"">1: Not at all confident</li>
      <li id=""conf-2"">2: Slightly confident</li>
      <li id=""conf-3"">3: Somewhat confident</li>
      <li id=""conf-4"">4: Very confident</li>
      <li id=""conf-5"">5: Completely confident</li>
    </ul>","5","","","","","",""
"","","","","","psychophysics","128","558785","0.0-10.0-32.0","565922","","988","","","","","","","","","","","1","key","1","10.949555555555142","720","250","2"
"","","","","","html-keyboard-response","129","559056","0.0-10.0-33.0","565922","","270","","","","","","","","","","
    <p>How confident are you in your response? Press the corresponding keys from 1 to 5 based on your experience</p>
    <ul id=""confidence-levels"">
      <li id=""conf-1"">1: Not at all confident</li>
      <li id=""conf-2"">2: Slightly confident</li>
      <li id=""conf-3"">3: Somewhat confident</li>
      <li id=""conf-4"">4: Very confident</li>
      <li id=""conf-5"">5: Completely confident</li>
    </ul>","5","","","","","",""
"","","","","","psychophysics","130","560079","0.0-10.0-34.0","565922","","1016","","","","","","","","","","","1","key","1","10.983655913978295","720","250","1"
"","","","","","html-keyboard-response","131","560345","0.0-10.0-35.0","565922","","265","","","","","","","","","","
    <p>How confident are you in your response? Press the corresponding keys from 1 to 5 based on your experience</p>
    <ul id=""confidence-levels"">
      <li id=""conf-1"">1: Not at all confident</li>
      <li id=""conf-2"">2: Slightly confident</li>
      <li id=""conf-3"">3: Somewhat confident</li>
      <li id=""conf-4"">4: Very confident</li>
      <li id=""conf-5"">5: Completely confident</li>
    </ul>","5","","","","","",""
"","","","","","psychophysics","132","561164","0.0-10.0-36.0","565922","","813","","","","","","","","","","","1","key","1","11.111232876712265","720","250","1"
"","","","","","html-keyboard-response","133","561435","0.0-10.0-37.0","565922","","268","","","","","","","","","","
    <p>How confident are you in your response? Press the corresponding keys from 1 to 5 based on your experience</p>
    <ul id=""confidence-levels"">
      <li id=""conf-1"">1: Not at all confident</li>
      <li id=""conf-2"">2: Slightly confident</li>
      <li id=""conf-3"">3: Somewhat confident</li>
      <li id=""conf-4"">4: Very confident</li>
      <li id=""conf-5"">5: Completely confident</li>
    </ul>","5","","","","","",""
"","","","","","psychophysics","134","562192","0.0-10.0-38.0","565922","","750","","","","","","","","","","","1","key","1","10.926086956522077","720","250","2"
"","","","","","html-keyboard-response","135","562368","0.0-10.0-39.0","565922","","173","","","","","","","","","","
    <p>How confident are you in your response? Press the corresponding keys from 1 to 5 based on your experience</p>
    <ul id=""confidence-levels"">
      <li id=""conf-1"">1: Not at all confident</li>
      <li id=""conf-2"">2: Slightly confident</li>
      <li id=""conf-3"">3: Somewhat confident</li>
      <li id=""conf-4"">4: Very confident</li>
      <li id=""conf-5"">5: Completely confident</li>
    </ul>","5","","","","","",""
"","","","","","psychophysics","136","563157","0.0-10.0-40.0","565922","","784","","","","","","","","","","","1","key","1","10.937222222221964","720","250","1"
"","","","","","html-keyboard-response","137","563330","0.0-10.0-41.0","565922","","172","","","","","","","","","","
    <p>How confident are you in your response? Press the corresponding keys from 1 to 5 based on your experience</p>
    <ul id=""confidence-levels"">
      <li id=""conf-1"">1: Not at all confident</li>
      <li id=""conf-2"">2: Slightly confident</li>
      <li id=""conf-3"">3: Somewhat confident</li>
      <li id=""conf-4"">4: Very confident</li>
      <li id=""conf-5"">5: Completely confident</li>
    </ul>","5","","","","","",""
"","","","","","psychophysics","138","564104","0.0-10.0-42.0","565922","","767","","","","","","","","","","","1","key","1","10.847042253521323","720","250","1"
"","","","","","html-keyboard-response","139","564223","0.0-10.0-43.0","565922","","118","","","","","","","","","","
    <p>How confident are you in your response? Press the corresponding keys from 1 to 5 based on your experience</p>
    <ul id=""confidence-levels"">
      <li id=""conf-1"">1: Not at all confident</li>
      <li id=""conf-2"">2: Slightly confident</li>
      <li id=""conf-3"">3: Somewhat confident</li>
      <li id=""conf-4"">4: Very confident</li>
      <li id=""conf-5"">5: Completely confident</li>
    </ul>","5","","","","","",""
"","","","","","psychophysics","140","565002","0.0-10.0-44.0","565922","","775","","","","","","","","","","","1","key","1","11.108000000000798","720","250","2"
"","","","","","html-keyboard-response","141","565172","0.0-10.0-45.0","565922","","169","","","","","","","","","","
    <p>How confident are you in your response? Press the corresponding keys from 1 to 5 based on your experience</p>
    <ul id=""confidence-levels"">
      <li id=""conf-1"">1: Not at all confident</li>
      <li id=""conf-2"">2: Slightly confident</li>
      <li id=""conf-3"">3: Somewhat confident</li>
      <li id=""conf-4"">4: Very confident</li>
      <li id=""conf-5"">5: Completely confident</li>
    </ul>","5","","","","","",""
"","","","","","psychophysics","142","565914","0.0-10.0-46.0","565922","","734","","","","","","","","","","","1","key","1","10.860882352941724","720","250","1"
"","","","","","html-keyboard-response","143","566089","0.0-10.0-47.0","565922","","174","","","","","","","","","","
    <p>How confident are you in your response? Press the corresponding keys from 1 to 5 based on your experience</p>
    <ul id=""confidence-levels"">
      <li id=""conf-1"">1: Not at all confident</li>
      <li id=""conf-2"">2: Slightly confident</li>
      <li id=""conf-3"">3: Somewhat confident</li>
      <li id=""conf-4"">4: Very confident</li>
      <li id=""conf-5"">5: Completely confident</li>
    </ul>","5","","","","","",""
"","","","","","psychophysics","144","566786","0.0-10.0-48.0","565922","","690","","","","","","","","","","","1","key","1","10.916190476190033","720","250","2"
"","","","","","html-keyboard-response","145","566951","0.0-10.0-49.0","565922","","163","","","","","","","","","","
    <p>How confident are you in your response? Press the corresponding keys from 1 to 5 based on your experience</p>
    <ul id=""confidence-levels"">
      <li id=""conf-1"">1: Not at all confident</li>
      <li id=""conf-2"">2: Slightly confident</li>
      <li id=""conf-3"">3: Somewhat confident</li>
      <li id=""conf-4"">4: Very confident</li>
      <li id=""conf-5"">5: Completely confident</li>
    </ul>","5","","","","","",""
"","","","","","psychophysics","146","567650","0.0-10.0-50.0","565922","","691","","","","","","","","","","","1","key","1","10.992380952381248","720","250","1"
"","","","","","html-keyboard-response","147","567866","0.0-10.0-51.0","565922","","214","","","","","","","","","","
    <p>How confident are you in your response? Press the corresponding keys from 1 to 5 based on your experience</p>
    <ul id=""confidence-levels"">
      <li id=""conf-1"">1: Not at all confident</li>
      <li id=""conf-2"">2: Slightly confident</li>
      <li id=""conf-3"">3: Somewhat confident</li>
      <li id=""conf-4"">4: Very confident</li>
      <li id=""conf-5"">5: Completely confident</li>
    </ul>","5","","","","","",""
"","","","","","psychophysics","148","568521","0.0-10.0-52.0","565922","","649","","","","","","","","","","","1","key","1","10.929152542372012","720","250","2"
"","","","","","html-keyboard-response","149","568682","0.0-10.0-53.0","565922","","159","","","","","","","","","","
    <p>How confident are you in your response? Press the corresponding keys from 1 to 5 based on your experience</p>
    <ul id=""confidence-levels"">
      <li id=""conf-1"">1: Not at all confident</li>
      <li id=""conf-2"">2: Slightly confident</li>
      <li id=""conf-3"">3: Somewhat confident</li>
      <li id=""conf-4"">4: Very confident</li>
      <li id=""conf-5"">5: Completely confident</li>
    </ul>","5","","","","","",""
"","","","","","psychophysics","150","569394","0.0-10.0-54.0","565922","","707","","","","","","","","","","","1","key","1","10.880615384615242","720","250","1"
"","","","","","html-keyboard-response","151","569591","0.0-10.0-55.0","565922","","196","","","","","","","","","","
    <p>How confident are you in your response? Press the corresponding keys from 1 to 5 based on your experience</p>
    <ul id=""confidence-levels"">
      <li id=""conf-1"">1: Not at all confident</li>
      <li id=""conf-2"">2: Slightly confident</li>
      <li id=""conf-3"">3: Somewhat confident</li>
      <li id=""conf-4"">4: Very confident</li>
      <li id=""conf-5"">5: Completely confident</li>
    </ul>","5","","","","","",""
"","","","","","psychophysics","152","570395","0.0-10.0-56.0","565922","","797","","","","","","","","","","","1","key","1","10.92109589041083","720","250","1"
"","","","","","html-keyboard-response","153","570627","0.0-10.0-57.0","565922","","231","","","","","","","","","","
    <p>How confident are you in your response? Press the corresponding keys from 1 to 5 based on your experience</p>
    <ul id=""confidence-levels"">
      <li id=""conf-1"">1: Not at all confident</li>
      <li id=""conf-2"">2: Slightly confident</li>
      <li id=""conf-3"">3: Somewhat confident</li>
      <li id=""conf-4"">4: Very confident</li>
      <li id=""conf-5"">5: Completely confident</li>
    </ul>","5","","","","","",""
"","","","","","psychophysics","154","571721","0.0-10.0-58.0","565922","","1088","","","","","","","","","","","1","key","1","10.947474747475217","720","250","2"
"","","","","","html-keyboard-response","155","571941","0.0-10.0-59.0","565922","","218","","","","","","","","","","
    <p>How confident are you in your response? Press the corresponding keys from 1 to 5 based on your experience</p>
    <ul id=""confidence-levels"">
      <li id=""conf-1"">1: Not at all confident</li>
      <li id=""conf-2"">2: Slightly confident</li>
      <li id=""conf-3"">3: Somewhat confident</li>
      <li id=""conf-4"">4: Very confident</li>
      <li id=""conf-5"">5: Completely confident</li>
    </ul>","5","","","","","",""
"","","","","","psychophysics","156","577162","0.0-10.0-60.0","565922","","5216","","","","","","","","","","","2","key","2","11.07159235668784","720","250","2"
"","","","","","html-keyboard-response","157","577251","0.0-10.0-61.0","565922","","89","","","","","","","","","","
    <p>How confident are you in your response? Press the corresponding keys from 1 to 5 based on your experience</p>
    <ul id=""confidence-levels"">
      <li id=""conf-1"">1: Not at all confident</li>
      <li id=""conf-2"">2: Slightly confident</li>
      <li id=""conf-3"">3: Somewhat confident</li>
      <li id=""conf-4"">4: Very confident</li>
      <li id=""conf-5"">5: Completely confident</li>
    </ul>","5","","","","","",""
"","","","","","psychophysics","158","579223","0.0-10.0-62.0","565922","","1970","","","","","","","","","","","2","key","2","11.071910112359813","720","250","2"
"","","","","","html-keyboard-response","159","579302","0.0-10.0-63.0","565922","","78","","","","","","","","","","
    <p>How confident are you in your response? Press the corresponding keys from 1 to 5 based on your experience</p>
    <ul id=""confidence-levels"">
      <li id=""conf-1"">1: Not at all confident</li>
      <li id=""conf-2"">2: Slightly confident</li>
      <li id=""conf-3"">3: Somewhat confident</li>
      <li id=""conf-4"">4: Very confident</li>
      <li id=""conf-5"">5: Completely confident</li>
    </ul>","5","","","","","",""
"","","","","","psychophysics","160","581296","0.0-10.0-64.0","565922","","1991","","","","","","","","","","","0","key","0","11.286022727272542","720","250","2"
"","","","","","html-keyboard-response","161","582506","0.0-10.0-65.0","565922","","1211","","","","","","","","","","
    <p>How confident are you in your response? Press the corresponding keys from 1 to 5 based on your experience</p>
    <ul id=""confidence-levels"">
      <li id=""conf-1"">1: Not at all confident</li>
      <li id=""conf-2"">2: Slightly confident</li>
      <li id=""conf-3"">3: Somewhat confident</li>
      <li id=""conf-4"">4: Very confident</li>
      <li id=""conf-5"">5: Completely confident</li>
    </ul>","5","","","","","",""
"","","","","","psychophysics","162","584050","0.0-10.0-66.0","565922","","1540","","","","","","","","","","","2","key","2","11.059568345323942","720","250","2"
"","","","","","html-keyboard-response","163","584283","0.0-10.0-67.0","565922","","233","","","","","","","","","","
    <p>How confident are you in your response? Press the corresponding keys from 1 to 5 based on your experience</p>
    <ul id=""confidence-levels"">
      <li id=""conf-1"">1: Not at all confident</li>
      <li id=""conf-2"">2: Slightly confident</li>
      <li id=""conf-3"">3: Somewhat confident</li>
      <li id=""conf-4"">4: Very confident</li>
      <li id=""conf-5"">5: Completely confident</li>
    </ul>","5","","","","","",""
"","","","","","psychophysics","164","588589","0.0-10.0-68.0","565922","","4300","","","","","","","","","","","2","key","2","11.066443298969144","720","250","2"
"","","","","","html-keyboard-response","165","589488","0.0-10.0-69.0","565922","","898","","","","","","","","","","
    <p>How confident are you in your response? Press the corresponding keys from 1 to 5 based on your experience</p>
    <ul id=""confidence-levels"">
      <li id=""conf-1"">1: Not at all confident</li>
      <li id=""conf-2"">2: Slightly confident</li>
      <li id=""conf-3"">3: Somewhat confident</li>
      <li id=""conf-4"">4: Very confident</li>
      <li id=""conf-5"">5: Completely confident</li>
    </ul>","5","","","","","",""
"","","","","","psychophysics","166","595251","0.0-10.0-70.0","565922","","5760","","","","","","","","","","","0","key","0","11.197587548638241","720","250","2"
"","","","","","html-keyboard-response","167","596307","0.0-10.0-71.0","565922","","1054","","","","","","","","","","
    <p>How confident are you in your response? Press the corresponding keys from 1 to 5 based on your experience</p>
    <ul id=""confidence-levels"">
      <li id=""conf-1"">1: Not at all confident</li>
      <li id=""conf-2"">2: Slightly confident</li>
      <li id=""conf-3"">3: Somewhat confident</li>
      <li id=""conf-4"">4: Very confident</li>
      <li id=""conf-5"">5: Completely confident</li>
    </ul>","5","","","","","",""
"","","","","","psychophysics","168","597753","0.0-10.0-72.0","565922","","1438","","","","","","","","","","","2","key","2","10.967480916030464","720","250","2"
"","","","","","html-keyboard-response","169","598201","0.0-10.0-73.0","565922","","447","","","","","","","","","","
    <p>How confident are you in your response? Press the corresponding keys from 1 to 5 based on your experience</p>
    <ul id=""confidence-levels"">
      <li id=""conf-1"">1: Not at all confident</li>
      <li id=""conf-2"">2: Slightly confident</li>
      <li id=""conf-3"">3: Somewhat confident</li>
      <li id=""conf-4"">4: Very confident</li>
      <li id=""conf-5"">5: Completely confident</li>
    </ul>","5","","","","","",""
"","","","","","psychophysics","170","599380","0.0-10.0-74.0","565922","","1171","","","","","","","","","","","2","key","2","10.99383177570063","720","250","2"
"","","","","","html-keyboard-response","171","599757","0.0-10.0-75.0","565922","","377","","","","","","","","","","
    <p>How confident are you in your response? Press the corresponding keys from 1 to 5 based on your experience</p>
    <ul id=""confidence-levels"">
      <li id=""conf-1"">1: Not at all confident</li>
      <li id=""conf-2"">2: Slightly confident</li>
      <li id=""conf-3"">3: Somewhat confident</li>
      <li id=""conf-4"">4: Very confident</li>
      <li id=""conf-5"">5: Completely confident</li>
    </ul>","5","","","","","",""
"","","","","","psychophysics","172","601500","0.0-10.0-76.0","565922","","1737","","","","","","","","","","","2","key","2","11.026455696202119","720","250","1"
"","","","","","html-keyboard-response","173","601624","0.0-10.0-77.0","565922","","122","","","","","","","","","","
    <p>How confident are you in your response? Press the corresponding keys from 1 to 5 based on your experience</p>
    <ul id=""confidence-levels"">
      <li id=""conf-1"">1: Not at all confident</li>
      <li id=""conf-2"">2: Slightly confident</li>
      <li id=""conf-3"">3: Somewhat confident</li>
      <li id=""conf-4"">4: Very confident</li>
      <li id=""conf-5"">5: Completely confident</li>
    </ul>","5","","","","","",""
"","","","","","html-keyboard-response","174","604327","0.0-11.0","565922","","2703","","","","","","","","","","Your average response time is null ms You are doing great"," ","","","","","",""
"","","","","","html-button-response","175","2242194","0.0-12.0","565922","","1637866","","","","","","","","","","<p>You have successfully completed one block of the experiment. The next part of the experiment can be started in <span id=""clock"">1:00</span> <br>You can take a break for a minute or more if you like and Press continue when you are ready","0","","","","","",""
"","","","","","psychophysics","176","2244220","0.0-13.0-0.0","565922","","2015","","","","","","","","","","","2","key","2","11.06824175824135","720","250","1"
"","","","","","html-keyboard-response","177","2245019","0.0-13.0-1.0","565922","","797","","","","","","","","","","
    <p>How confident are you in your response? Press the corresponding keys from 1 to 5 based on your experience</p>
    <ul id=""confidence-levels"">
      <li id=""conf-1"">1: Not at all confident</li>
      <li id=""conf-2"">2: Slightly confident</li>
      <li id=""conf-3"">3: Somewhat confident</li>
      <li id=""conf-4"">4: Very confident</li>
      <li id=""conf-5"">5: Completely confident</li>
    </ul>","5","","","","","",""
"","","","","","psychophysics","178","2246408","0.0-13.0-2.0","565922","","1385","","","","","","","","","","","1","key","1","11.10500000000015","720","250","1"
"","","","","","html-keyboard-response","179","2246969","0.0-13.0-3.0","565922","","560","","","","","","","","","","
    <p>How confident are you in your response? Press the corresponding keys from 1 to 5 based on your experience</p>
    <ul id=""confidence-levels"">
      <li id=""conf-1"">1: Not at all confident</li>
      <li id=""conf-2"">2: Slightly confident</li>
      <li id=""conf-3"">3: Somewhat confident</li>
      <li id=""conf-4"">4: Very confident</li>
      <li id=""conf-5"">5: Completely confident</li>
    </ul>","5","","","","","",""
"","","","","","psychophysics","180","2248244","0.0-13.0-4.0","565922","","1268","","","","","","","","","","","1","key","1","10.965689655172575","720","250","1"
"","","","","","html-keyboard-response","181","2248427","0.0-13.0-5.0","565922","","181","","","","","","","","","","
    <p>How confident are you in your response? Press the corresponding keys from 1 to 5 based on your experience</p>
    <ul id=""confidence-levels"">
      <li id=""conf-1"">1: Not at all confident</li>
      <li id=""conf-2"">2: Slightly confident</li>
      <li id=""conf-3"">3: Somewhat confident</li>
      <li id=""conf-4"">4: Very confident</li>
      <li id=""conf-5"">5: Completely confident</li>
    </ul>","5","","","","","",""
"","","","","","psychophysics","182","2251119","0.0-13.0-6.0","565922","","2681","","","","","","","","","","","1","key","1","11.075123966942842","720","250","1"
"","","","","","html-keyboard-response","183","2251273","0.0-13.0-7.0","565922","","153","","","","","","","","","","
    <p>How confident are you in your response? Press the corresponding keys from 1 to 5 based on your experience</p>
    <ul id=""confidence-levels"">
      <li id=""conf-1"">1: Not at all confident</li>
      <li id=""conf-2"">2: Slightly confident</li>
      <li id=""conf-3"">3: Somewhat confident</li>
      <li id=""conf-4"">4: Very confident</li>
      <li id=""conf-5"">5: Completely confident</li>
    </ul>","5","","","","","",""
"","","","","","psychophysics","184","2252473","0.0-13.0-8.0","565922","","1195","","","","","","","","","","","1","key","1","11.026296296299229","720","250","1"
"","","","","","html-keyboard-response","185","2252639","0.0-13.0-9.0","565922","","165","","","","","","","","","","
    <p>How confident are you in your response? Press the corresponding keys from 1 to 5 based on your experience</p>
    <ul id=""confidence-levels"">
      <li id=""conf-1"">1: Not at all confident</li>
      <li id=""conf-2"">2: Slightly confident</li>
      <li id=""conf-3"">3: Somewhat confident</li>
      <li id=""conf-4"">4: Very confident</li>
      <li id=""conf-5"">5: Completely confident</li>
    </ul>","5","","","","","",""
"","","","","","psychophysics","186","2254325","0.0-13.0-10.0","565922","","1679","","","","","","","","","","","2","key","2","11.051447368423013","720","250","1"
"","","","","","html-keyboard-response","187","2254409","0.0-13.0-11.0","565922","","82","","","","","","","","","","
    <p>How confident are you in your response? Press the corresponding keys from 1 to 5 based on your experience</p>
    <ul id=""confidence-levels"">
      <li id=""conf-1"">1: Not at all confident</li>
      <li id=""conf-2"">2: Slightly confident</li>
      <li id=""conf-3"">3: Somewhat confident</li>
      <li id=""conf-4"">4: Very confident</li>
      <li id=""conf-5"">5: Completely confident</li>
    </ul>","5","","","","","",""
"","","","","","psychophysics","188","2256676","0.0-13.0-12.0","565922","","2263","","","","","","","","","","","1","key","1","11.103039215686366","720","250","1"
"","","","","","html-keyboard-response","189","2256819","0.0-13.0-13.0","565922","","140","","","","","","","","","","
    <p>How confident are you in your response? Press the corresponding keys from 1 to 5 based on your experience</p>
    <ul id=""confidence-levels"">
      <li id=""conf-1"">1: Not at all confident</li>
      <li id=""conf-2"">2: Slightly confident</li>
      <li id=""conf-3"">3: Somewhat confident</li>
      <li id=""conf-4"">4: Very confident</li>
      <li id=""conf-5"">5: Completely confident</li>
    </ul>","5","","","","","",""
"","","","","","psychophysics","190","2259120","0.0-13.0-14.0","565922","","2298","","","","","","","","","","","2","key","2","11.10888888888907","720","250","1"
"","","","","","html-keyboard-response","191","2259209","0.0-13.0-15.0","565922","","88","","","","","","","","","","
    <p>How confident are you in your response? Press the corresponding keys from 1 to 5 based on your experience</p>
    <ul id=""confidence-levels"">
      <li id=""conf-1"">1: Not at all confident</li>
      <li id=""conf-2"">2: Slightly confident</li>
      <li id=""conf-3"">3: Somewhat confident</li>
      <li id=""conf-4"">4: Very confident</li>
      <li id=""conf-5"">5: Completely confident</li>
    </ul>","5","","","","","",""
"","","","","","psychophysics","192","2260840","0.0-13.0-16.0","565922","","1627","","","","","","","","","","","1","key","1","11.099041095893345","720","250","1"
"","","","","","html-keyboard-response","193","2260981","0.0-13.0-17.0","565922","","141","","","","","","","","","","
    <p>How confident are you in your response? Press the corresponding keys from 1 to 5 based on your experience</p>
    <ul id=""confidence-levels"">
      <li id=""conf-1"">1: Not at all confident</li>
      <li id=""conf-2"">2: Slightly confident</li>
      <li id=""conf-3"">3: Somewhat confident</li>
      <li id=""conf-4"">4: Very confident</li>
      <li id=""conf-5"">5: Completely confident</li>
    </ul>","5","","","","","",""
"","","","","","psychophysics","194","2262280","0.0-13.0-18.0","565922","","1296","","","","","","","","","","","1","key","1","11.049401709403938","720","250","1"
"","","","","","html-keyboard-response","195","2262437","0.0-13.0-19.0","565922","","155","","","","","","","","","","
    <p>How confident are you in your response? Press the corresponding keys from 1 to 5 based on your experience</p>
    <ul id=""confidence-levels"">
      <li id=""conf-1"">1: Not at all confident</li>
      <li id=""conf-2"">2: Slightly confident</li>
      <li id=""conf-3"">3: Somewhat confident</li>
      <li id=""conf-4"">4: Very confident</li>
      <li id=""conf-5"">5: Completely confident</li>
    </ul>","5","","","","","",""
"","","","","","psychophysics","196","2263644","0.0-13.0-20.0","565922","","1202","","","","","","","","","","","1","key","1","11.043486238534161","720","250","1"
"","","","","","html-keyboard-response","197","2263732","0.0-13.0-21.0","565922","","86","","","","","","","","","","
    <p>How confident are you in your response? Press the corresponding keys from 1 to 5 based on your experience</p>
    <ul id=""confidence-levels"">
      <li id=""conf-1"">1: Not at all confident</li>
      <li id=""conf-2"">2: Slightly confident</li>
      <li id=""conf-3"">3: Somewhat confident</li>
      <li id=""conf-4"">4: Very confident</li>
      <li id=""conf-5"">5: Completely confident</li>
    </ul>","5","","","","","",""
"","","","","","psychophysics","198","2264796","0.0-13.0-22.0","565922","","1062","","","","","","","","","","","1","key","1","11.090315789474468","720","250","1"
"","","","","","html-keyboard-response","199","2264892","0.0-13.0-23.0","565922","","96","","","","","","","","","","
    <p>How confident are you in your response? Press the corresponding keys from 1 to 5 based on your experience</p>
    <ul id=""confidence-levels"">
      <li id=""conf-1"">1: Not at all confident</li>
      <li id=""conf-2"">2: Slightly confident</li>
      <li id=""conf-3"">3: Somewhat confident</li>
      <li id=""conf-4"">4: Very confident</li>
      <li id=""conf-5"">5: Completely confident</li>
    </ul>","5","","","","","",""
"","","","","","psychophysics","200","2266612","0.0-13.0-24.0","565922","","1717","","","","","","","","","","","2","key","2","11.062838709675857","720","250","1"
"","","","","","html-keyboard-response","201","2266866","0.0-13.0-25.0","565922","","254","","","","","","","","","","
    <p>How confident are you in your response? Press the corresponding keys from 1 to 5 based on your experience</p>
    <ul id=""confidence-levels"">
      <li id=""conf-1"">1: Not at all confident</li>
      <li id=""conf-2"">2: Slightly confident</li>
      <li id=""conf-3"">3: Somewhat confident</li>
      <li id=""conf-4"">4: Very confident</li>
      <li id=""conf-5"">5: Completely confident</li>
    </ul>","5","","","","","",""
"","","","","","psychophysics","202","2269913","0.0-13.0-26.0","565922","","3042","","","","","","","","","","","2","key","2","11.058327272727409","720","250","1"
"","","","","","html-keyboard-response","203","2270156","0.0-13.0-27.0","565922","","241","","","","","","","","","","
    <p>How confident are you in your response? Press the corresponding keys from 1 to 5 based on your experience</p>
    <ul id=""confidence-levels"">
      <li id=""conf-1"">1: Not at all confident</li>
      <li id=""conf-2"">2: Slightly confident</li>
      <li id=""conf-3"">3: Somewhat confident</li>
      <li id=""conf-4"">4: Very confident</li>
      <li id=""conf-5"">5: Completely confident</li>
    </ul>","5","","","","","",""
"","","","","","psychophysics","204","2271599","0.0-13.0-28.0","565922","","1439","","","","","","","","","","","2","key","2","11.081538461539179","720","250","1"
"","","","","","html-keyboard-response","205","2271888","0.0-13.0-29.0","565922","","289","","","","","","","","","","
    <p>How confident are you in your response? Press the corresponding keys from 1 to 5 based on your experience</p>
    <ul id=""confidence-levels"">
      <li id=""conf-1"">1: Not at all confident</li>
      <li id=""conf-2"">2: Slightly confident</li>
      <li id=""conf-3"">3: Somewhat confident</li>
      <li id=""conf-4"">4: Very confident</li>
      <li id=""conf-5"">5: Completely confident</li>
    </ul>","5","","","","","",""
"","","","","","psychophysics","206","2273107","0.0-13.0-30.0","565922","","1213","","","","","","","","","","","2","key","2","10.974909090911122","720","250","1"
"","","","","","html-keyboard-response","207","2273265","0.0-13.0-31.0","565922","","156","","","","","","","","","","
    <p>How confident are you in your response? Press the corresponding keys from 1 to 5 based on your experience</p>
    <ul id=""confidence-levels"">
      <li id=""conf-1"">1: Not at all confident</li>
      <li id=""conf-2"">2: Slightly confident</li>
      <li id=""conf-3"">3: Somewhat confident</li>
      <li id=""conf-4"">4: Very confident</li>
      <li id=""conf-5"">5: Completely confident</li>
    </ul>","5","","","","","",""
"","","","","","psychophysics","208","2275019","0.0-13.0-32.0","565922","","1748","","","","","","","","","","","1","key","1","11.02784810126818","720","250","1"
"","","","","","html-keyboard-response","209","2275446","0.0-13.0-33.0","565922","","427","","","","","","","","","","
    <p>How confident are you in your response? Press the corresponding keys from 1 to 5 based on your experience</p>
    <ul id=""confidence-levels"">
      <li id=""conf-1"">1: Not at all confident</li>
      <li id=""conf-2"">2: Slightly confident</li>
      <li id=""conf-3"">3: Somewhat confident</li>
      <li id=""conf-4"">4: Very confident</li>
      <li id=""conf-5"">5: Completely confident</li>
    </ul>","5","","","","","",""
"","","","","","psychophysics","210","2276711","0.0-13.0-34.0","565922","","1258","","","","","","","","","","","1","key","1","10.970260869565866","720","250","1"
"","","","","","html-keyboard-response","211","2276928","0.0-13.0-35.0","565922","","215","","","","","","","","","","
    <p>How confident are you in your response? Press the corresponding keys from 1 to 5 based on your experience</p>
    <ul id=""confidence-levels"">
      <li id=""conf-1"">1: Not at all confident</li>
      <li id=""conf-2"">2: Slightly confident</li>
      <li id=""conf-3"">3: Somewhat confident</li>
      <li id=""conf-4"">4: Very confident</li>
      <li id=""conf-5"">5: Completely confident</li>
    </ul>","5","","","","","",""
"","","","","","psychophysics","212","2278568","0.0-13.0-36.0","565922","","1635","","","","","","","","","","","2","key","2","11.049594594593588","720","250","1"
"","","","","","html-keyboard-response","213","2278828","0.0-13.0-37.0","565922","","260","","","","","","","","","","
    <p>How confident are you in your response? Press the corresponding keys from 1 to 5 based on your experience</p>
    <ul id=""confidence-levels"">
      <li id=""conf-1"">1: Not at all confident</li>
      <li id=""conf-2"">2: Slightly confident</li>
      <li id=""conf-3"">3: Somewhat confident</li>
      <li id=""conf-4"">4: Very confident</li>
      <li id=""conf-5"">5: Completely confident</li>
    </ul>","5","","","","","",""
"","","","","","psychophysics","214","2280168","0.0-13.0-38.0","565922","","1334","","","","","","","","","","","1","key","1","11.028264462809302","720","250","1"
"","","","","","html-keyboard-response","215","2280413","0.0-13.0-39.0","565922","","243","","","","","","","","","","
    <p>How confident are you in your response? Press the corresponding keys from 1 to 5 based on your experience</p>
    <ul id=""confidence-levels"">
      <li id=""conf-1"">1: Not at all confident</li>
      <li id=""conf-2"">2: Slightly confident</li>
      <li id=""conf-3"">3: Somewhat confident</li>
      <li id=""conf-4"">4: Very confident</li>
      <li id=""conf-5"">5: Completely confident</li>
    </ul>","5","","","","","",""
"","","","","","psychophysics","216","2281689","0.0-13.0-40.0","565922","","1269","","","","","","","","","","","2","key","2","10.968448275860784","720","250","1"
"","","","","","html-keyboard-response","217","2281838","0.0-13.0-41.0","565922","","148","","","","","","","","","","
    <p>How confident are you in your response? Press the corresponding keys from 1 to 5 based on your experience</p>
    <ul id=""confidence-levels"">
      <li id=""conf-1"">1: Not at all confident</li>
      <li id=""conf-2"">2: Slightly confident</li>
      <li id=""conf-3"">3: Somewhat confident</li>
      <li id=""conf-4"">4: Very confident</li>
      <li id=""conf-5"">5: Completely confident</li>
    </ul>","5","","","","","",""
"","","","","","psychophysics","218","2283399","0.0-13.0-42.0","565922","","1558","","","","","","","","","","","1","key","1","11.052624113474648","720","250","1"
"","","","","","html-keyboard-response","219","2284098","0.0-13.0-43.0","565922","","699","","","","","","","","","","
    <p>How confident are you in your response? Press the corresponding keys from 1 to 5 based on your experience</p>
    <ul id=""confidence-levels"">
      <li id=""conf-1"">1: Not at all confident</li>
      <li id=""conf-2"">2: Slightly confident</li>
      <li id=""conf-3"">3: Somewhat confident</li>
      <li id=""conf-4"">4: Very confident</li>
      <li id=""conf-5"">5: Completely confident</li>
    </ul>","5","","","","","",""
"","","","","","psychophysics","220","2285406","0.0-13.0-44.0","565922","","1302","","","","","","","","","","","2","key","2","10.994745762710917","720","250","1"
"","","","","","html-keyboard-response","221","2285556","0.0-13.0-45.0","565922","","150","","","","","","","","","","
    <p>How confident are you in your response? Press the corresponding keys from 1 to 5 based on your experience</p>
    <ul id=""confidence-levels"">
      <li id=""conf-1"">1: Not at all confident</li>
      <li id=""conf-2"">2: Slightly confident</li>
      <li id=""conf-3"">3: Somewhat confident</li>
      <li id=""conf-4"">4: Very confident</li>
      <li id=""conf-5"">5: Completely confident</li>
    </ul>","5","","","","","",""
"","","","","","psychophysics","222","2287009","0.0-13.0-46.0","565922","","1451","","","","","","","","","","","2","key","2","11.076793893130198","720","250","1"
"","","","","","html-keyboard-response","223","2287261","0.0-13.0-47.0","565922","","250","","","","","","","","","","
    <p>How confident are you in your response? Press the corresponding keys from 1 to 5 based on your experience</p>
    <ul id=""confidence-levels"">
      <li id=""conf-1"">1: Not at all confident</li>
      <li id=""conf-2"">2: Slightly confident</li>
      <li id=""conf-3"">3: Somewhat confident</li>
      <li id=""conf-4"">4: Very confident</li>
      <li id=""conf-5"">5: Completely confident</li>
    </ul>","5","","","","","",""
"","","","","","psychophysics","224","2288726","0.0-13.0-48.0","565922","","1459","","","","","","","","","","","2","key","2","11.036363636365753","720","250","1"
"","","","","","html-keyboard-response","225","2288893","0.0-13.0-49.0","565922","","166","","","","","","","","","","
    <p>How confident are you in your response? Press the corresponding keys from 1 to 5 based on your experience</p>
    <ul id=""confidence-levels"">
      <li id=""conf-1"">1: Not at all confident</li>
      <li id=""conf-2"">2: Slightly confident</li>
      <li id=""conf-3"">3: Somewhat confident</li>
      <li id=""conf-4"">4: Very confident</li>
      <li id=""conf-5"">5: Completely confident</li>
    </ul>","5","","","","","",""
"","","","","","psychophysics","226","2291020","0.0-13.0-50.0","565922","","2121","","","","","","","","","","","1","key","1","11.01108808290223","720","250","1"
"","","","","","html-keyboard-response","227","2291149","0.0-13.0-51.0","565922","","128","","","","","","","","","","
    <p>How confident are you in your response? Press the corresponding keys from 1 to 5 based on your experience</p>
    <ul id=""confidence-levels"">
      <li id=""conf-1"">1: Not at all confident</li>
      <li id=""conf-2"">2: Slightly confident</li>
      <li id=""conf-3"">3: Somewhat confident</li>
      <li id=""conf-4"">4: Very confident</li>
      <li id=""conf-5"">5: Completely confident</li>
    </ul>","5","","","","","",""
"","","","","","psychophysics","228","2292500","0.0-13.0-52.0","565922","","1349","","","","","","","","","","","2","key","2","11.046393442620355","720","250","1"
"","","","","","html-keyboard-response","229","2292617","0.0-13.0-53.0","565922","","116","","","","","","","","","","
    <p>How confident are you in your response? Press the corresponding keys from 1 to 5 based on your experience</p>
    <ul id=""confidence-levels"">
      <li id=""conf-1"">1: Not at all confident</li>
      <li id=""conf-2"">2: Slightly confident</li>
      <li id=""conf-3"">3: Somewhat confident</li>
      <li id=""conf-4"">4: Very confident</li>
      <li id=""conf-5"">5: Completely confident</li>
    </ul>","5","","","","","",""
"","","","","","psychophysics","230","2293889","0.0-13.0-54.0","565922","","1265","","","","","","","","","","","2","key","2","11.025391304351228","720","250","1"
"","","","","","html-keyboard-response","231","2294070","0.0-13.0-55.0","565922","","180","","","","","","","","","","
    <p>How confident are you in your response? Press the corresponding keys from 1 to 5 based on your experience</p>
    <ul id=""confidence-levels"">
      <li id=""conf-1"">1: Not at all confident</li>
      <li id=""conf-2"">2: Slightly confident</li>
      <li id=""conf-3"">3: Somewhat confident</li>
      <li id=""conf-4"">4: Very confident</li>
      <li id=""conf-5"">5: Completely confident</li>
    </ul>","5","","","","","",""
"","","","","","psychophysics","232","2295158","0.0-13.0-56.0","565922","","1081","","","","","","","","","","","2","key","2","10.927878787877471","720","250","1"
"","","","","","html-keyboard-response","233","2295376","0.0-13.0-57.0","565922","","216","","","","","","","","","","
    <p>How confident are you in your response? Press the corresponding keys from 1 to 5 based on your experience</p>
    <ul id=""confidence-levels"">
      <li id=""conf-1"">1: Not at all confident</li>
      <li id=""conf-2"">2: Slightly confident</li>
      <li id=""conf-3"">3: Somewhat confident</li>
      <li id=""conf-4"">4: Very confident</li>
      <li id=""conf-5"">5: Completely confident</li>
    </ul>","5","","","","","",""
"","","","","","psychophysics","234","2296443","0.0-13.0-58.0","565922","","1062","","","","","","","","","","","2","key","2","10.977731958766151","720","250","1"
"","","","","","html-keyboard-response","235","2296619","0.0-13.0-59.0","565922","","175","","","","","","","","","","
    <p>How confident are you in your response? Press the corresponding keys from 1 to 5 based on your experience</p>
    <ul id=""confidence-levels"">
      <li id=""conf-1"">1: Not at all confident</li>
      <li id=""conf-2"">2: Slightly confident</li>
      <li id=""conf-3"">3: Somewhat confident</li>
      <li id=""conf-4"">4: Very confident</li>
      <li id=""conf-5"">5: Completely confident</li>
    </ul>","5","","","","","",""
"","","","","","psychophysics","236","2297737","0.0-13.0-60.0","565922","","1108","","","","","","","","","","","2","key","2","10.986534653466638","720","250","1"
"","","","","","html-keyboard-response","237","2297888","0.0-13.0-61.0","565922","","150","","","","","","","","","","
    <p>How confident are you in your response? Press the corresponding keys from 1 to 5 based on your experience</p>
    <ul id=""confidence-levels"">
      <li id=""conf-1"">1: Not at all confident</li>
      <li id=""conf-2"">2: Slightly confident</li>
      <li id=""conf-3"">3: Somewhat confident</li>
      <li id=""conf-4"">4: Very confident</li>
      <li id=""conf-5"">5: Completely confident</li>
    </ul>","5","","","","","",""
"","","","","","psychophysics","238","2298972","0.0-13.0-62.0","565922","","1082","","","","","","","","","","","2","key","2","11.077113402061663","720","250","1"
"","","","","","html-keyboard-response","239","2299212","0.0-13.0-63.0","565922","","238","","","","","","","","","","
    <p>How confident are you in your response? Press the corresponding keys from 1 to 5 based on your experience</p>
    <ul id=""confidence-levels"">
      <li id=""conf-1"">1: Not at all confident</li>
      <li id=""conf-2"">2: Slightly confident</li>
      <li id=""conf-3"">3: Somewhat confident</li>
      <li id=""conf-4"">4: Very confident</li>
      <li id=""conf-5"">5: Completely confident</li>
    </ul>","5","","","","","",""
"","","","","","psychophysics","240","2300105","0.0-13.0-64.0","565922","","888","","","","","","","","","","","2","key","2","10.91358024691358","720","250","1"
"","","","","","html-keyboard-response","241","2300352","0.0-13.0-65.0","565922","","246","","","","","","","","","","
    <p>How confident are you in your response? Press the corresponding keys from 1 to 5 based on your experience</p>
    <ul id=""confidence-levels"">
      <li id=""conf-1"">1: Not at all confident</li>
      <li id=""conf-2"">2: Slightly confident</li>
      <li id=""conf-3"">3: Somewhat confident</li>
      <li id=""conf-4"">4: Very confident</li>
      <li id=""conf-5"">5: Completely confident</li>
    </ul>","5","","","","","",""
"","","","","","psychophysics","242","2301412","0.0-13.0-66.0","565922","","1052","","","","","","","","","","","2","key","2","10.99062500000097","720","250","1"
"","","","","","html-keyboard-response","243","2301591","0.0-13.0-67.0","565922","","178","","","","","","","","","","
    <p>How confident are you in your response? Press the corresponding keys from 1 to 5 based on your experience</p>
    <ul id=""confidence-levels"">
      <li id=""conf-1"">1: Not at all confident</li>
      <li id=""conf-2"">2: Slightly confident</li>
      <li id=""conf-3"">3: Somewhat confident</li>
      <li id=""conf-4"">4: Very confident</li>
      <li id=""conf-5"">5: Completely confident</li>
    </ul>","5","","","","","",""
"","","","","","psychophysics","244","2302400","0.0-13.0-68.0","565922","","802","","","","","","","","","","","2","key","2","10.870810810816348","720","250","1"
"","","","","","html-keyboard-response","245","2302612","0.0-13.0-69.0","565922","","211","","","","","","","","","","
    <p>How confident are you in your response? Press the corresponding keys from 1 to 5 based on your experience</p>
    <ul id=""confidence-levels"">
      <li id=""conf-1"">1: Not at all confident</li>
      <li id=""conf-2"">2: Slightly confident</li>
      <li id=""conf-3"">3: Somewhat confident</li>
      <li id=""conf-4"">4: Very confident</li>
      <li id=""conf-5"">5: Completely confident</li>
    </ul>","5","","","","","",""
"","","","","","psychophysics","246","2303779","0.0-13.0-70.0","565922","","1162","","","","","","","","","","","2","key","2","10.961132075470644","720","250","1"
"","","","","","html-keyboard-response","247","2303941","0.0-13.0-71.0","565922","","160","","","","","","","","","","
    <p>How confident are you in your response? Press the corresponding keys from 1 to 5 based on your experience</p>
    <ul id=""confidence-levels"">
      <li id=""conf-1"">1: Not at all confident</li>
      <li id=""conf-2"">2: Slightly confident</li>
      <li id=""conf-3"">3: Somewhat confident</li>
      <li id=""conf-4"">4: Very confident</li>
      <li id=""conf-5"">5: Completely confident</li>
    </ul>","5","","","","","",""
"","","","","","psychophysics","248","2305105","0.0-13.0-72.0","565922","","1159","","","","","","","","","","","2","key","2","10.998285714288553","720","250","1"
"","","","","","html-keyboard-response","249","2305243","0.0-13.0-73.0","565922","","137","","","","","","","","","","
    <p>How confident are you in your response? Press the corresponding keys from 1 to 5 based on your experience</p>
    <ul id=""confidence-levels"">
      <li id=""conf-1"">1: Not at all confident</li>
      <li id=""conf-2"">2: Slightly confident</li>
      <li id=""conf-3"">3: Somewhat confident</li>
      <li id=""conf-4"">4: Very confident</li>
      <li id=""conf-5"">5: Completely confident</li>
    </ul>","5","","","","","",""
"","","","","","psychophysics","250","2306833","0.0-13.0-74.0","565922","","1587","","","","","","","","","","","1","key","1","11.248936170213426","720","250","1"
"","","","","","html-keyboard-response","251","2307018","0.0-13.0-75.0","565922","","181","","","","","","","","","","
    <p>How confident are you in your response? Press the corresponding keys from 1 to 5 based on your experience</p>
    <ul id=""confidence-levels"">
      <li id=""conf-1"">1: Not at all confident</li>
      <li id=""conf-2"">2: Slightly confident</li>
      <li id=""conf-3"">3: Somewhat confident</li>
      <li id=""conf-4"">4: Very confident</li>
      <li id=""conf-5"">5: Completely confident</li>
    </ul>","5","","","","","",""
"","","","","","psychophysics","252","2308184","0.0-13.0-76.0","565922","","1161","","","","","","","","","","","2","key","2","11.011619047616565","720","250","1"
"","","","","","html-keyboard-response","253","2308512","0.0-13.0-77.0","565922","","327","","","","","","","","","","
    <p>How confident are you in your response? Press the corresponding keys from 1 to 5 based on your experience</p>
    <ul id=""confidence-levels"">
      <li id=""conf-1"">1: Not at all confident</li>
      <li id=""conf-2"">2: Slightly confident</li>
      <li id=""conf-3"">3: Somewhat confident</li>
      <li id=""conf-4"">4: Very confident</li>
      <li id=""conf-5"">5: Completely confident</li>
    </ul>","5","","","","","",""
"","","","","","psychophysics","254","2309898","0.0-13.0-78.0","565922","","1379","","","","","","","","","","","2","key","2","10.976507936508233","720","250","1"
"","","","","","html-keyboard-response","255","2310119","0.0-13.0-79.0","565922","","219","","","","","","","","","","
    <p>How confident are you in your response? Press the corresponding keys from 1 to 5 based on your experience</p>
    <ul id=""confidence-levels"">
      <li id=""conf-1"">1: Not at all confident</li>
      <li id=""conf-2"">2: Slightly confident</li>
      <li id=""conf-3"">3: Somewhat confident</li>
      <li id=""conf-4"">4: Very confident</li>
      <li id=""conf-5"">5: Completely confident</li>
    </ul>","5","","","","","",""
"","","","","","psychophysics","256","2311481","0.0-13.0-80.0","565922","","1355","","","","","","","","","","","2","key","2","11.01073170731571","720","250","1"
"","","","","","html-keyboard-response","257","2311665","0.0-13.0-81.0","565922","","185","","","","","","","","","","
    <p>How confident are you in your response? Press the corresponding keys from 1 to 5 based on your experience</p>
    <ul id=""confidence-levels"">
      <li id=""conf-1"">1: Not at all confident</li>
      <li id=""conf-2"">2: Slightly confident</li>
      <li id=""conf-3"">3: Somewhat confident</li>
      <li id=""conf-4"">4: Very confident</li>
      <li id=""conf-5"">5: Completely confident</li>
    </ul>","5","","","","","",""
"","","","","","psychophysics","258","2313022","0.0-13.0-82.0","565922","","1351","","","","","","","","","","","2","key","2","10.993170731704742","720","250","1"
"","","","","","html-keyboard-response","259","2313192","0.0-13.0-83.0","565922","","167","","","","","","","","","","
    <p>How confident are you in your response? Press the corresponding keys from 1 to 5 based on your experience</p>
    <ul id=""confidence-levels"">
      <li id=""conf-1"">1: Not at all confident</li>
      <li id=""conf-2"">2: Slightly confident</li>
      <li id=""conf-3"">3: Somewhat confident</li>
      <li id=""conf-4"">4: Very confident</li>
      <li id=""conf-5"">5: Completely confident</li>
    </ul>","5","","","","","",""
"","","","","","psychophysics","260","2314495","0.0-13.0-84.0","565922","","1296","","","","","","","","","","","2","key","2","10.954237288132436","720","250","1"
"","","","","","html-keyboard-response","261","2314669","0.0-13.0-85.0","565922","","173","","","","","","","","","","
    <p>How confident are you in your response? Press the corresponding keys from 1 to 5 based on your experience</p>
    <ul id=""confidence-levels"">
      <li id=""conf-1"">1: Not at all confident</li>
      <li id=""conf-2"">2: Slightly confident</li>
      <li id=""conf-3"">3: Somewhat confident</li>
      <li id=""conf-4"">4: Very confident</li>
      <li id=""conf-5"">5: Completely confident</li>
    </ul>","5","","","","","",""
"","","","","","psychophysics","262","2315951","0.0-13.0-86.0","565922","","1276","","","","","","","","","","","2","key","2","10.959827586205613","720","250","1"
"","","","","","html-keyboard-response","263","2316103","0.0-13.0-87.0","565922","","152","","","","","","","","","","
    <p>How confident are you in your response? Press the corresponding keys from 1 to 5 based on your experience</p>
    <ul id=""confidence-levels"">
      <li id=""conf-1"">1: Not at all confident</li>
      <li id=""conf-2"">2: Slightly confident</li>
      <li id=""conf-3"">3: Somewhat confident</li>
      <li id=""conf-4"">4: Very confident</li>
      <li id=""conf-5"">5: Completely confident</li>
    </ul>","5","","","","","",""
"","","","","","psychophysics","264","2317554","0.0-13.0-88.0","565922","","1446","","","","","","","","","","","1","key","1","11.054809160306624","720","250","1"
"","","","","","html-keyboard-response","265","2317761","0.0-13.0-89.0","565922","","207","","","","","","","","","","
    <p>How confident are you in your response? Press the corresponding keys from 1 to 5 based on your experience</p>
    <ul id=""confidence-levels"">
      <li id=""conf-1"">1: Not at all confident</li>
      <li id=""conf-2"">2: Slightly confident</li>
      <li id=""conf-3"">3: Somewhat confident</li>
      <li id=""conf-4"">4: Very confident</li>
      <li id=""conf-5"">5: Completely confident</li>
    </ul>","5","","","","","",""
"","","","","","psychophysics","266","2319100","0.0-13.0-90.0","565922","","1333","","","","","","","","","","","1","key","1","11.032561983470613","720","250","1"
"","","","","","html-keyboard-response","267","2319234","0.0-13.0-91.0","565922","","132","","","","","","","","","","
    <p>How confident are you in your response? Press the corresponding keys from 1 to 5 based on your experience</p>
    <ul id=""confidence-levels"">
      <li id=""conf-1"">1: Not at all confident</li>
      <li id=""conf-2"">2: Slightly confident</li>
      <li id=""conf-3"">3: Somewhat confident</li>
      <li id=""conf-4"">4: Very confident</li>
      <li id=""conf-5"">5: Completely confident</li>
    </ul>","5","","","","","",""
"","","","","","psychophysics","268","2320654","0.0-13.0-92.0","565922","","1417","","","","","","","","","","","2","key","2","11.0720312500016","720","250","1"
"","","","","","html-keyboard-response","269","2320840","0.0-13.0-93.0","565922","","184","","","","","","","","","","
    <p>How confident are you in your response? Press the corresponding keys from 1 to 5 based on your experience</p>
    <ul id=""confidence-levels"">
      <li id=""conf-1"">1: Not at all confident</li>
      <li id=""conf-2"">2: Slightly confident</li>
      <li id=""conf-3"">3: Somewhat confident</li>
      <li id=""conf-4"">4: Very confident</li>
      <li id=""conf-5"">5: Completely confident</li>
    </ul>","5","","","","","",""
"","","","","","psychophysics","270","2322111","0.0-13.0-94.0","565922","","1264","","","","","","","","","","","1","key","1","11.017913043478746","720","250","1"
"","","","","","html-keyboard-response","271","2322274","0.0-13.0-95.0","565922","","161","","","","","","","","","","
    <p>How confident are you in your response? Press the corresponding keys from 1 to 5 based on your experience</p>
    <ul id=""confidence-levels"">
      <li id=""conf-1"">1: Not at all confident</li>
      <li id=""conf-2"">2: Slightly confident</li>
      <li id=""conf-3"">3: Somewhat confident</li>
      <li id=""conf-4"">4: Very confident</li>
      <li id=""conf-5"">5: Completely confident</li>
    </ul>","5","","","","","",""
"","","","","","psychophysics","272","2323378","0.0-13.0-96.0","565922","","1097","","","","","","","","","","","1","key","1","10.998000000002794","720","250","1"
"","","","","","html-keyboard-response","273","2323639","0.0-13.0-97.0","565922","","259","","","","","","","","","","
    <p>How confident are you in your response? Press the corresponding keys from 1 to 5 based on your experience</p>
    <ul id=""confidence-levels"">
      <li id=""conf-1"">1: Not at all confident</li>
      <li id=""conf-2"">2: Slightly confident</li>
      <li id=""conf-3"">3: Somewhat confident</li>
      <li id=""conf-4"">4: Very confident</li>
      <li id=""conf-5"">5: Completely confident</li>
    </ul>","5","","","","","",""
"","","","","","html-keyboard-response","274","2327998","0.0-14.0","565922","","4359","","","","","","","","","","Your average response time is 827.684 ms You are doing great"," ","","","","","",""
"","","","","","survey-text","275","2370054","0.0-15.0","565922","","42045","","","","","","","","","","","{""EasyToUnderstand"":""Yes"",""Suggestions"":""Improve the UI"",""Interface"":""Meow"",""Perception"":""Yes""}","","","","","",""
