"success","timeout","failed_images","failed_audio","failed_video","trial_type","trial_index","time_elapsed","internal_node_id","participant_id","view_history","rt","item_width_mm","item_height_mm","item_width_px","px2mm","view_dist_mm","item_width_deg","px2deg","win_width_deg","win_height_deg","stimulus","response","response_type","key_press","avg_frame_time","center_x","center_y","correct_response"
"true","false","[]","[]","[]","preload","0","5","0.0-0.0","989737","","","","","","","","","","","","","","","","","","",""
"","","","","","instructions","1","3848","0.0-1.0","989737","[{""page_index"":0,""viewing_time"":1911},{""page_index"":1,""viewing_time"":1149},{""page_index"":2,""viewing_time"":783}]","3843","","","","","","","","","","","","","","","","",""
"true","","","","","fullscreen","2","5982","0.0-2.0","989737","","","","","","","","","","","","","","","","","","",""
"","","","","","virtual-chinrest","3","28332","0.0-3.0","989737","","22349","85.6","53.98","412","4.81","545.27","8.976256253992888","45.89886789570328","39.04235729892052","24.401473311825328","","","","","","","",""
"","","","","","html-keyboard-response","4","29229","0.0-4.0","989737","","896","","","","","","","","","","This is just trial run, press Space bar to continue"," ","","","","","",""
"","","","","","psychophysics","5","33199","0.0-5.0-0.0","989737","","3953","","","","","","","","","","","1","key","1","16.352697095435683","896","250","1"
"","","","","","psychophysics","6","35859","0.0-5.0-1.0","989737","","2655","","","","","","","","","","","1","key","1","16.453416149068325","896","250","1"
"","","","","","psychophysics","7","37345","0.0-5.0-2.0","989737","","1481","","","","","","","","","","","1","key","1","16.670454545454547","896","250","1"
"","","","","","psychophysics","8","39267","0.0-5.0-3.0","989737","","1919","","","","","","","","","","","0","key","0","16.379310344827587","896","250","0"
"","","","","","psychophysics","9","40193","0.0-5.0-4.0","989737","","923","","","","","","","","","","","1","key","1","16.654545454545456","896","250","1"
"","","","","","psychophysics","10","41186","0.0-5.0-5.0","989737","","990","","","","","","","","","","","1","key","1","15.580645161290322","896","250","1"
"","","","","","psychophysics","11","42042","0.0-5.0-6.0","989737","","851","","","","","","","","","","","1","key","1","15.943396226415095","896","250","1"
"","","","","","psychophysics","12","44631","0.0-5.0-7.0","989737","","2585","","","","","","","","","","","0","key","0","16.46153846153846","896","250","0"
"","","","","","html-keyboard-response","13","45999","0.0-6.0","989737","","1367","","","","","","","","","","You have successfully completed the pilot , Press Space bar to continue to main block of experiment"," ","","","","","",""
"","","","","","psychophysics","14","47052","0.0-7.0-0.0","989737","","1050","","","","","","","","","","","1","key","1","16.140625","896","250","1"
"","","","","","html-keyboard-response","15","47924","0.0-7.0-1.0","989737","","870","","","","","","","","","","
    <p>How confident are you in your response? Press the corresponding keys from 1 to 5 based on your experience</p>
    <ul id=""confidence-levels"">
      <li id=""conf-1"">1: Not at all confident</li>
      <li id=""conf-2"">2: Slightly confident</li>
      <li id=""conf-3"">3: Somewhat confident</li>
      <li id=""conf-4"">4: Very confident</li>
      <li id=""conf-5"">5: Completely confident</li>
    </ul>","5","","","","","",""
"","","","","","psychophysics","16","48770","0.0-7.0-2.0","989737","","842","","","","","","","","","","","1","key","1","16","896","250","1"
"","","","","","html-keyboard-response","17","49319","0.0-7.0-3.0","989737","","547","","","","","","","","","","
    <p>How confident are you in your response? Press the corresponding keys from 1 to 5 based on your experience</p>
    <ul id=""confidence-levels"">
      <li id=""conf-1"">1: Not at all confident</li>
      <li id=""conf-2"">2: Slightly confident</li>
      <li id=""conf-3"">3: Somewhat confident</li>
      <li id=""conf-4"">4: Very confident</li>
      <li id=""conf-5"">5: Completely confident</li>
    </ul>","5","","","","","",""
"","","","","","psychophysics","18","50181","0.0-7.0-4.0","989737","","857","","","","","","","","","","","1","key","1","16.01923076923077","896","250","1"
"","","","","","html-keyboard-response","19","50631","0.0-7.0-5.0","989737","","449","","","","","","","","","","
    <p>How confident are you in your response? Press the corresponding keys from 1 to 5 based on your experience</p>
    <ul id=""confidence-levels"">
      <li id=""conf-1"">1: Not at all confident</li>
      <li id=""conf-2"">2: Slightly confident</li>
      <li id=""conf-3"">3: Somewhat confident</li>
      <li id=""conf-4"">4: Very confident</li>
      <li id=""conf-5"">5: Completely confident</li>
    </ul>","5","","","","","",""
"","","","","","psychophysics","20","51512","0.0-7.0-6.0","989737","","878","","","","","","","","","","","1","key","1","16.673076923076923","896","250","1"
"","","","","","html-keyboard-response","21","51891","0.0-7.0-7.0","989737","","378","","","","","","","","","","
    <p>How confident are you in your response? Press the corresponding keys from 1 to 5 based on your experience</p>
    <ul id=""confidence-levels"">
      <li id=""conf-1"">1: Not at all confident</li>
      <li id=""conf-2"">2: Slightly confident</li>
      <li id=""conf-3"">3: Somewhat confident</li>
      <li id=""conf-4"">4: Very confident</li>
      <li id=""conf-5"">5: Completely confident</li>
    </ul>","5","","","","","",""
"","","","","","psychophysics","22","52792","0.0-7.0-8.0","989737","","898","","","","","","","","","","","1","key","1","16.660377358490567","896","250","1"
"","","","","","html-keyboard-response","23","53136","0.0-7.0-9.0","989737","","342","","","","","","","","","","
    <p>How confident are you in your response? Press the corresponding keys from 1 to 5 based on your experience</p>
    <ul id=""confidence-levels"">
      <li id=""conf-1"">1: Not at all confident</li>
      <li id=""conf-2"">2: Slightly confident</li>
      <li id=""conf-3"">3: Somewhat confident</li>
      <li id=""conf-4"">4: Very confident</li>
      <li id=""conf-5"">5: Completely confident</li>
    </ul>","5","","","","","",""
"","","","","","psychophysics","24","54603","0.0-7.0-10.0","989737","","1463","","","","","","","","","","","0","key","0","16.247191011235955","896","250","0"
"","","","","","html-keyboard-response","25","55245","0.0-7.0-11.0","989737","","642","","","","","","","","","","
    <p>How confident are you in your response? Press the corresponding keys from 1 to 5 based on your experience</p>
    <ul id=""confidence-levels"">
      <li id=""conf-1"">1: Not at all confident</li>
      <li id=""conf-2"">2: Slightly confident</li>
      <li id=""conf-3"">3: Somewhat confident</li>
      <li id=""conf-4"">4: Very confident</li>
      <li id=""conf-5"">5: Completely confident</li>
    </ul>","5","","","","","",""
"","","","","","psychophysics","26","56346","0.0-7.0-12.0","989737","","1098","","","","","","","","","","","0","key","0","16.16417910447761","896","250","0"
"","","","","","html-keyboard-response","27","56758","0.0-7.0-13.0","989737","","411","","","","","","","","","","
    <p>How confident are you in your response? Press the corresponding keys from 1 to 5 based on your experience</p>
    <ul id=""confidence-levels"">
      <li id=""conf-1"">1: Not at all confident</li>
      <li id=""conf-2"">2: Slightly confident</li>
      <li id=""conf-3"">3: Somewhat confident</li>
      <li id=""conf-4"">4: Very confident</li>
      <li id=""conf-5"">5: Completely confident</li>
    </ul>","5","","","","","",""
"","","","","","psychophysics","28","57894","0.0-7.0-14.0","989737","","1133","","","","","","","","","","","0","key","0","16.17391304347826","896","250","0"
"","","","","","html-keyboard-response","29","58324","0.0-7.0-15.0","989737","","429","","","","","","","","","","
    <p>How confident are you in your response? Press the corresponding keys from 1 to 5 based on your experience</p>
    <ul id=""confidence-levels"">
      <li id=""conf-1"">1: Not at all confident</li>
      <li id=""conf-2"">2: Slightly confident</li>
      <li id=""conf-3"">3: Somewhat confident</li>
      <li id=""conf-4"">4: Very confident</li>
      <li id=""conf-5"">5: Completely confident</li>
    </ul>","5","","","","","",""
"","","","","","psychophysics","30","59259","0.0-7.0-16.0","989737","","931","","","","","","","","","","","0","key","0","16.07017543859649","896","250","0"
"","","","","","html-keyboard-response","31","59672","0.0-7.0-17.0","989737","","413","","","","","","","","","","
    <p>How confident are you in your response? Press the corresponding keys from 1 to 5 based on your experience</p>
    <ul id=""confidence-levels"">
      <li id=""conf-1"">1: Not at all confident</li>
      <li id=""conf-2"">2: Slightly confident</li>
      <li id=""conf-3"">3: Somewhat confident</li>
      <li id=""conf-4"">4: Very confident</li>
      <li id=""conf-5"">5: Completely confident</li>
    </ul>","5","","","","","",""
"","","","","","psychophysics","32","60733","0.0-7.0-18.0","989737","","1058","","","","","","","","","","","1","key","1","15.651515151515152","896","250","1"
"","","","","","html-keyboard-response","33","61227","0.0-7.0-19.0","989737","","493","","","","","","","","","","
    <p>How confident are you in your response? Press the corresponding keys from 1 to 5 based on your experience</p>
    <ul id=""confidence-levels"">
      <li id=""conf-1"">1: Not at all confident</li>
      <li id=""conf-2"">2: Slightly confident</li>
      <li id=""conf-3"">3: Somewhat confident</li>
      <li id=""conf-4"">4: Very confident</li>
      <li id=""conf-5"">5: Completely confident</li>
    </ul>","5","","","","","",""
"","","","","","psychophysics","34","62137","0.0-7.0-20.0","989737","","906","","","","","","","","","","","1","key","1","16.67924528301887","896","250","1"
"","","","","","html-keyboard-response","35","62456","0.0-7.0-21.0","989737","","319","","","","","","","","","","
    <p>How confident are you in your response? Press the corresponding keys from 1 to 5 based on your experience</p>
    <ul id=""confidence-levels"">
      <li id=""conf-1"">1: Not at all confident</li>
      <li id=""conf-2"">2: Slightly confident</li>
      <li id=""conf-3"">3: Somewhat confident</li>
      <li id=""conf-4"">4: Very confident</li>
      <li id=""conf-5"">5: Completely confident</li>
    </ul>","5","","","","","",""
"","","","","","psychophysics","36","63759","0.0-7.0-22.0","989737","","1299","","","","","","","","","","","0","key","0","16.240506329113924","896","250","0"
"","","","","","html-keyboard-response","37","64180","0.0-7.0-23.0","989737","","421","","","","","","","","","","
    <p>How confident are you in your response? Press the corresponding keys from 1 to 5 based on your experience</p>
    <ul id=""confidence-levels"">
      <li id=""conf-1"">1: Not at all confident</li>
      <li id=""conf-2"">2: Slightly confident</li>
      <li id=""conf-3"">3: Somewhat confident</li>
      <li id=""conf-4"">4: Very confident</li>
      <li id=""conf-5"">5: Completely confident</li>
    </ul>","5","","","","","",""
"","","","","","psychophysics","38","65209","0.0-7.0-24.0","989737","","1026","","","","","","","","","","","0","key","0","16.126984126984127","896","250","0"
"","","","","","html-keyboard-response","39","66302","0.0-7.0-25.0","989737","","1092","","","","","","","","","","
    <p>How confident are you in your response? Press the corresponding keys from 1 to 5 based on your experience</p>
    <ul id=""confidence-levels"">
      <li id=""conf-1"">1: Not at all confident</li>
      <li id=""conf-2"">2: Slightly confident</li>
      <li id=""conf-3"">3: Somewhat confident</li>
      <li id=""conf-4"">4: Very confident</li>
      <li id=""conf-5"">5: Completely confident</li>
    </ul>","5","","","","","",""
"","","","","","psychophysics","40","67261","0.0-7.0-26.0","989737","","955","","","","","","","","","","","1","key","1","15.566666666666666","896","250","1"
"","","","","","html-keyboard-response","41","67621","0.0-7.0-27.0","989737","","359","","","","","","","","","","
    <p>How confident are you in your response? Press the corresponding keys from 1 to 5 based on your experience</p>
    <ul id=""confidence-levels"">
      <li id=""conf-1"">1: Not at all confident</li>
      <li id=""conf-2"">2: Slightly confident</li>
      <li id=""conf-3"">3: Somewhat confident</li>
      <li id=""conf-4"">4: Very confident</li>
      <li id=""conf-5"">5: Completely confident</li>
    </ul>","5","","","","","",""
"","","","","","psychophysics","42","68952","0.0-7.0-28.0","989737","","1327","","","","","","","","","","","0","key","0","16.2375","896","250","0"
"","","","","","html-keyboard-response","43","69353","0.0-7.0-29.0","989737","","400","","","","","","","","","","
    <p>How confident are you in your response? Press the corresponding keys from 1 to 5 based on your experience</p>
    <ul id=""confidence-levels"">
      <li id=""conf-1"">1: Not at all confident</li>
      <li id=""conf-2"">2: Slightly confident</li>
      <li id=""conf-3"">3: Somewhat confident</li>
      <li id=""conf-4"">4: Very confident</li>
      <li id=""conf-5"">5: Completely confident</li>
    </ul>","5","","","","","",""
"","","","","","psychophysics","44","70415","0.0-7.0-30.0","989737","","1058","","","","","","","","","","","1","key","1","15.666666666666666","896","250","1"
"","","","","","html-keyboard-response","45","70746","0.0-7.0-31.0","989737","","329","","","","","","","","","","
    <p>How confident are you in your response? Press the corresponding keys from 1 to 5 based on your experience</p>
    <ul id=""confidence-levels"">
      <li id=""conf-1"">1: Not at all confident</li>
      <li id=""conf-2"">2: Slightly confident</li>
      <li id=""conf-3"">3: Somewhat confident</li>
      <li id=""conf-4"">4: Very confident</li>
      <li id=""conf-5"">5: Completely confident</li>
    </ul>","5","","","","","",""
"","","","","","psychophysics","46","71742","0.0-7.0-32.0","989737","","993","","","","","","","","","","","1","key","1","16.114754098360656","896","250","1"
"","","","","","html-keyboard-response","47","72080","0.0-7.0-33.0","989737","","337","","","","","","","","","","
    <p>How confident are you in your response? Press the corresponding keys from 1 to 5 based on your experience</p>
    <ul id=""confidence-levels"">
      <li id=""conf-1"">1: Not at all confident</li>
      <li id=""conf-2"">2: Slightly confident</li>
      <li id=""conf-3"">3: Somewhat confident</li>
      <li id=""conf-4"">4: Very confident</li>
      <li id=""conf-5"">5: Completely confident</li>
    </ul>","5","","","","","",""
"","","","","","psychophysics","48","73110","0.0-7.0-34.0","989737","","1028","","","","","","","","","","","1","key","1","15.646153846153846","896","250","1"
"","","","","","html-keyboard-response","49","73460","0.0-7.0-35.0","989737","","349","","","","","","","","","","
    <p>How confident are you in your response? Press the corresponding keys from 1 to 5 based on your experience</p>
    <ul id=""confidence-levels"">
      <li id=""conf-1"">1: Not at all confident</li>
      <li id=""conf-2"">2: Slightly confident</li>
      <li id=""conf-3"">3: Somewhat confident</li>
      <li id=""conf-4"">4: Very confident</li>
      <li id=""conf-5"">5: Completely confident</li>
    </ul>","5","","","","","",""
"","","","","","psychophysics","50","74492","0.0-7.0-36.0","989737","","1031","","","","","","","","","","","1","key","1","15.63076923076923","896","250","1"
"","","","","","html-keyboard-response","51","74817","0.0-7.0-37.0","989737","","324","","","","","","","","","","
    <p>How confident are you in your response? Press the corresponding keys from 1 to 5 based on your experience</p>
    <ul id=""confidence-levels"">
      <li id=""conf-1"">1: Not at all confident</li>
      <li id=""conf-2"">2: Slightly confident</li>
      <li id=""conf-3"">3: Somewhat confident</li>
      <li id=""conf-4"">4: Very confident</li>
      <li id=""conf-5"">5: Completely confident</li>
    </ul>","5","","","","","",""
"","","","","","psychophysics","52","75861","0.0-7.0-38.0","989737","","1041","","","","","","","","","","","0","key","0","16.15625","896","250","0"
"","","","","","html-keyboard-response","53","76246","0.0-7.0-39.0","989737","","383","","","","","","","","","","
    <p>How confident are you in your response? Press the corresponding keys from 1 to 5 based on your experience</p>
    <ul id=""confidence-levels"">
      <li id=""conf-1"">1: Not at all confident</li>
      <li id=""conf-2"">2: Slightly confident</li>
      <li id=""conf-3"">3: Somewhat confident</li>
      <li id=""conf-4"">4: Very confident</li>
      <li id=""conf-5"">5: Completely confident</li>
    </ul>","5","","","","","",""
"","","","","","psychophysics","54","77303","0.0-7.0-40.0","989737","","1053","","","","","","","","","","","1","key","1","15.651515151515152","896","250","1"
"","","","","","html-keyboard-response","55","77638","0.0-7.0-41.0","989737","","334","","","","","","","","","","
    <p>How confident are you in your response? Press the corresponding keys from 1 to 5 based on your experience</p>
    <ul id=""confidence-levels"">
      <li id=""conf-1"">1: Not at all confident</li>
      <li id=""conf-2"">2: Slightly confident</li>
      <li id=""conf-3"">3: Somewhat confident</li>
      <li id=""conf-4"">4: Very confident</li>
      <li id=""conf-5"">5: Completely confident</li>
    </ul>","5","","","","","",""
"","","","","","psychophysics","56","78643","0.0-7.0-42.0","989737","","1003","","","","","","","","","","","1","key","1","16.677966101694917","896","250","1"
"","","","","","html-keyboard-response","57","79004","0.0-7.0-43.0","989737","","361","","","","","","","","","","
    <p>How confident are you in your response? Press the corresponding keys from 1 to 5 based on your experience</p>
    <ul id=""confidence-levels"">
      <li id=""conf-1"">1: Not at all confident</li>
      <li id=""conf-2"">2: Slightly confident</li>
      <li id=""conf-3"">3: Somewhat confident</li>
      <li id=""conf-4"">4: Very confident</li>
      <li id=""conf-5"">5: Completely confident</li>
    </ul>","5","","","","","",""
"","","","","","psychophysics","58","79931","0.0-7.0-44.0","989737","","924","","","","","","","","","","","1","key","1","16.053571428571427","896","250","1"
"","","","","","html-keyboard-response","59","80245","0.0-7.0-45.0","989737","","314","","","","","","","","","","
    <p>How confident are you in your response? Press the corresponding keys from 1 to 5 based on your experience</p>
    <ul id=""confidence-levels"">
      <li id=""conf-1"">1: Not at all confident</li>
      <li id=""conf-2"">2: Slightly confident</li>
      <li id=""conf-3"">3: Somewhat confident</li>
      <li id=""conf-4"">4: Very confident</li>
      <li id=""conf-5"">5: Completely confident</li>
    </ul>","5","","","","","",""
"","","","","","psychophysics","60","81261","0.0-7.0-46.0","989737","","1013","","","","","","","","","","","1","key","1","15.625","896","250","1"
"","","","","","html-keyboard-response","61","81656","0.0-7.0-47.0","989737","","394","","","","","","","","","","
    <p>How confident are you in your response? Press the corresponding keys from 1 to 5 based on your experience</p>
    <ul id=""confidence-levels"">
      <li id=""conf-1"">1: Not at all confident</li>
      <li id=""conf-2"">2: Slightly confident</li>
      <li id=""conf-3"">3: Somewhat confident</li>
      <li id=""conf-4"">4: Very confident</li>
      <li id=""conf-5"">5: Completely confident</li>
    </ul>","5","","","","","",""
"","","","","","psychophysics","62","82598","0.0-7.0-48.0","989737","","939","","","","","","","","","","","1","key","1","16.087719298245613","896","250","1"
"","","","","","html-keyboard-response","63","82932","0.0-7.0-49.0","989737","","333","","","","","","","","","","
    <p>How confident are you in your response? Press the corresponding keys from 1 to 5 based on your experience</p>
    <ul id=""confidence-levels"">
      <li id=""conf-1"">1: Not at all confident</li>
      <li id=""conf-2"">2: Slightly confident</li>
      <li id=""conf-3"">3: Somewhat confident</li>
      <li id=""conf-4"">4: Very confident</li>
      <li id=""conf-5"">5: Completely confident</li>
    </ul>","5","","","","","",""
"","","","","","psychophysics","64","83932","0.0-7.0-50.0","989737","","996","","","","","","","","","","","1","key","1","16.661016949152543","896","250","1"
"","","","","","html-keyboard-response","65","84273","0.0-7.0-51.0","989737","","340","","","","","","","","","","
    <p>How confident are you in your response? Press the corresponding keys from 1 to 5 based on your experience</p>
    <ul id=""confidence-levels"">
      <li id=""conf-1"">1: Not at all confident</li>
      <li id=""conf-2"">2: Slightly confident</li>
      <li id=""conf-3"">3: Somewhat confident</li>
      <li id=""conf-4"">4: Very confident</li>
      <li id=""conf-5"">5: Completely confident</li>
    </ul>","5","","","","","",""
"","","","","","psychophysics","66","85267","0.0-7.0-52.0","989737","","989","","","","","","","","","","","1","key","1","16.655172413793103","896","250","1"
"","","","","","html-keyboard-response","67","85667","0.0-7.0-53.0","989737","","399","","","","","","","","","","
    <p>How confident are you in your response? Press the corresponding keys from 1 to 5 based on your experience</p>
    <ul id=""confidence-levels"">
      <li id=""conf-1"">1: Not at all confident</li>
      <li id=""conf-2"">2: Slightly confident</li>
      <li id=""conf-3"">3: Somewhat confident</li>
      <li id=""conf-4"">4: Very confident</li>
      <li id=""conf-5"">5: Completely confident</li>
    </ul>","5","","","","","",""
"","","","","","psychophysics","68","86612","0.0-7.0-54.0","989737","","942","","","","","","","","","","","1","key","1","16.672727272727272","896","250","1"
"","","","","","html-keyboard-response","69","86938","0.0-7.0-55.0","989737","","324","","","","","","","","","","
    <p>How confident are you in your response? Press the corresponding keys from 1 to 5 based on your experience</p>
    <ul id=""confidence-levels"">
      <li id=""conf-1"">1: Not at all confident</li>
      <li id=""conf-2"">2: Slightly confident</li>
      <li id=""conf-3"">3: Somewhat confident</li>
      <li id=""conf-4"">4: Very confident</li>
      <li id=""conf-5"">5: Completely confident</li>
    </ul>","5","","","","","",""
"","","","","","psychophysics","70","88148","0.0-7.0-56.0","989737","","1207","","","","","","","","","","","0","key","0","16.205479452054796","896","250","0"
"","","","","","html-keyboard-response","71","88506","0.0-7.0-57.0","989737","","356","","","","","","","","","","
    <p>How confident are you in your response? Press the corresponding keys from 1 to 5 based on your experience</p>
    <ul id=""confidence-levels"">
      <li id=""conf-1"">1: Not at all confident</li>
      <li id=""conf-2"">2: Slightly confident</li>
      <li id=""conf-3"">3: Somewhat confident</li>
      <li id=""conf-4"">4: Very confident</li>
      <li id=""conf-5"">5: Completely confident</li>
    </ul>","5","","","","","",""
"","","","","","psychophysics","72","89559","0.0-7.0-58.0","989737","","1050","","","","","","","","","","","1","key","1","15.666666666666666","896","250","1"
"","","","","","html-keyboard-response","73","89867","0.0-7.0-59.0","989737","","307","","","","","","","","","","
    <p>How confident are you in your response? Press the corresponding keys from 1 to 5 based on your experience</p>
    <ul id=""confidence-levels"">
      <li id=""conf-1"">1: Not at all confident</li>
      <li id=""conf-2"">2: Slightly confident</li>
      <li id=""conf-3"">3: Somewhat confident</li>
      <li id=""conf-4"">4: Very confident</li>
      <li id=""conf-5"">5: Completely confident</li>
    </ul>","5","","","","","",""
"","","","","","psychophysics","74","90860","0.0-7.0-60.0","989737","","991","","","","","","","","","","","1","key","1","16.114754098360656","896","250","1"
"","","","","","html-keyboard-response","75","91152","0.0-7.0-61.0","989737","","290","","","","","","","","","","
    <p>How confident are you in your response? Press the corresponding keys from 1 to 5 based on your experience</p>
    <ul id=""confidence-levels"">
      <li id=""conf-1"">1: Not at all confident</li>
      <li id=""conf-2"">2: Slightly confident</li>
      <li id=""conf-3"">3: Somewhat confident</li>
      <li id=""conf-4"">4: Very confident</li>
      <li id=""conf-5"">5: Completely confident</li>
    </ul>","5","","","","","",""
"","","","","","psychophysics","76","92151","0.0-7.0-62.0","989737","","996","","","","","","","","","","","0","key","0","16.098360655737704","896","250","1"
"","","","","","html-keyboard-response","77","92546","0.0-7.0-63.0","989737","","394","","","","","","","","","","
    <p>How confident are you in your response? Press the corresponding keys from 1 to 5 based on your experience</p>
    <ul id=""confidence-levels"">
      <li id=""conf-1"">1: Not at all confident</li>
      <li id=""conf-2"">2: Slightly confident</li>
      <li id=""conf-3"">3: Somewhat confident</li>
      <li id=""conf-4"">4: Very confident</li>
      <li id=""conf-5"">5: Completely confident</li>
    </ul>","5","","","","","",""
"","","","","","psychophysics","78","93616","0.0-7.0-64.0","989737","","1067","","","","","","","","","","","1","key","1","16.153846153846153","896","250","1"
"","","","","","html-keyboard-response","79","93928","0.0-7.0-65.0","989737","","312","","","","","","","","","","
    <p>How confident are you in your response? Press the corresponding keys from 1 to 5 based on your experience</p>
    <ul id=""confidence-levels"">
      <li id=""conf-1"">1: Not at all confident</li>
      <li id=""conf-2"">2: Slightly confident</li>
      <li id=""conf-3"">3: Somewhat confident</li>
      <li id=""conf-4"">4: Very confident</li>
      <li id=""conf-5"">5: Completely confident</li>
    </ul>","5","","","","","",""
"","","","","","psychophysics","80","94968","0.0-7.0-66.0","989737","","1037","","","","","","","","","","","1","key","1","16.65573770491803","896","250","1"
"","","","","","html-keyboard-response","81","95353","0.0-7.0-67.0","989737","","382","","","","","","","","","","
    <p>How confident are you in your response? Press the corresponding keys from 1 to 5 based on your experience</p>
    <ul id=""confidence-levels"">
      <li id=""conf-1"">1: Not at all confident</li>
      <li id=""conf-2"">2: Slightly confident</li>
      <li id=""conf-3"">3: Somewhat confident</li>
      <li id=""conf-4"">4: Very confident</li>
      <li id=""conf-5"">5: Completely confident</li>
    </ul>","5","","","","","",""
"","","","","","psychophysics","82","96366","0.0-7.0-68.0","989737","","1010","","","","","","","","","","","1","key","1","15.619047619047619","896","250","1"
"","","","","","html-keyboard-response","83","96748","0.0-7.0-69.0","989737","","382","","","","","","","","","","
    <p>How confident are you in your response? Press the corresponding keys from 1 to 5 based on your experience</p>
    <ul id=""confidence-levels"">
      <li id=""conf-1"">1: Not at all confident</li>
      <li id=""conf-2"">2: Slightly confident</li>
      <li id=""conf-3"">3: Somewhat confident</li>
      <li id=""conf-4"">4: Very confident</li>
      <li id=""conf-5"">5: Completely confident</li>
    </ul>","5","","","","","",""
"","","","","","psychophysics","84","97821","0.0-7.0-70.0","989737","","1070","","","","","","","","","","","1","key","1","16.153846153846153","896","250","1"
"","","","","","html-keyboard-response","85","98172","0.0-7.0-71.0","989737","","350","","","","","","","","","","
    <p>How confident are you in your response? Press the corresponding keys from 1 to 5 based on your experience</p>
    <ul id=""confidence-levels"">
      <li id=""conf-1"">1: Not at all confident</li>
      <li id=""conf-2"">2: Slightly confident</li>
      <li id=""conf-3"">3: Somewhat confident</li>
      <li id=""conf-4"">4: Very confident</li>
      <li id=""conf-5"">5: Completely confident</li>
    </ul>","5","","","","","",""
"","","","","","psychophysics","86","99169","0.0-7.0-72.0","989737","","994","","","","","","","","","","","1","key","1","16.67241379310345","896","250","1"
"","","","","","html-keyboard-response","87","99521","0.0-7.0-73.0","989737","","352","","","","","","","","","","
    <p>How confident are you in your response? Press the corresponding keys from 1 to 5 based on your experience</p>
    <ul id=""confidence-levels"">
      <li id=""conf-1"">1: Not at all confident</li>
      <li id=""conf-2"">2: Slightly confident</li>
      <li id=""conf-3"">3: Somewhat confident</li>
      <li id=""conf-4"">4: Very confident</li>
      <li id=""conf-5"">5: Completely confident</li>
    </ul>","5","","","","","",""
"","","","","","psychophysics","88","100509","0.0-7.0-74.0","989737","","985","","","","","","","","","","","1","key","1","16.655172413793103","896","250","1"
"","","","","","html-keyboard-response","89","100881","0.0-7.0-75.0","989737","","371","","","","","","","","","","
    <p>How confident are you in your response? Press the corresponding keys from 1 to 5 based on your experience</p>
    <ul id=""confidence-levels"">
      <li id=""conf-1"">1: Not at all confident</li>
      <li id=""conf-2"">2: Slightly confident</li>
      <li id=""conf-3"">3: Somewhat confident</li>
      <li id=""conf-4"">4: Very confident</li>
      <li id=""conf-5"">5: Completely confident</li>
    </ul>","5","","","","","",""
"","","","","","psychophysics","90","101925","0.0-7.0-76.0","989737","","1040","","","","","","","","","","","1","key","1","15.651515151515152","896","250","1"
"","","","","","html-keyboard-response","91","102261","0.0-7.0-77.0","989737","","335","","","","","","","","","","
    <p>How confident are you in your response? Press the corresponding keys from 1 to 5 based on your experience</p>
    <ul id=""confidence-levels"">
      <li id=""conf-1"">1: Not at all confident</li>
      <li id=""conf-2"">2: Slightly confident</li>
      <li id=""conf-3"">3: Somewhat confident</li>
      <li id=""conf-4"">4: Very confident</li>
      <li id=""conf-5"">5: Completely confident</li>
    </ul>","5","","","","","",""
"","","","","","psychophysics","92","103336","0.0-7.0-78.0","989737","","1070","","","","","","","","","","","0","key","0","16.138461538461538","896","250","0"
"","","","","","html-keyboard-response","93","103709","0.0-7.0-79.0","989737","","371","","","","","","","","","","
    <p>How confident are you in your response? Press the corresponding keys from 1 to 5 based on your experience</p>
    <ul id=""confidence-levels"">
      <li id=""conf-1"">1: Not at all confident</li>
      <li id=""conf-2"">2: Slightly confident</li>
      <li id=""conf-3"">3: Somewhat confident</li>
      <li id=""conf-4"">4: Very confident</li>
      <li id=""conf-5"">5: Completely confident</li>
    </ul>","5","","","","","",""
"","","","","","html-keyboard-response","94","105410","0.0-8.0","989737","","1701","","","","","","","","","","Your average response time is  1439.787 ms You are doing great"," ","","","","","",""
"","","","","","html-button-response","95","217352","0.0-9.0","989737","","111941","","","","","","","","","","<p>You have successfully completed one block of the experiment. The next part of the experiment can be started in <span id=""clock"">1:00</span> <br>You can take a break for a minute or more if you like and Press continue when you are ready","0","","","","","",""
"","","","","","psychophysics","96","218516","0.0-10.0-0.0","989737","","1159","","","","","","","","","","","1","key","1","15.712328767123287","896","250","2"
"","","","","","html-keyboard-response","97","220307","0.0-10.0-1.0","989737","","1790","","","","","","","","","","
    <p>How confident are you in your response? Press the corresponding keys from 1 to 5 based on your experience</p>
    <ul id=""confidence-levels"">
      <li id=""conf-1"">1: Not at all confident</li>
      <li id=""conf-2"">2: Slightly confident</li>
      <li id=""conf-3"">3: Somewhat confident</li>
      <li id=""conf-4"">4: Very confident</li>
      <li id=""conf-5"">5: Completely confident</li>
    </ul>","5","","","","","",""
"","","","","","psychophysics","98","221177","0.0-10.0-2.0","989737","","866","","","","","","","","","","","1","key","1","16.037735849056602","896","250","2"
"","","","","","html-keyboard-response","99","221796","0.0-10.0-3.0","989737","","617","","","","","","","","","","
    <p>How confident are you in your response? Press the corresponding keys from 1 to 5 based on your experience</p>
    <ul id=""confidence-levels"">
      <li id=""conf-1"">1: Not at all confident</li>
      <li id=""conf-2"">2: Slightly confident</li>
      <li id=""conf-3"">3: Somewhat confident</li>
      <li id=""conf-4"">4: Very confident</li>
      <li id=""conf-5"">5: Completely confident</li>
    </ul>","5","","","","","",""
"","","","","","psychophysics","100","222666","0.0-10.0-4.0","989737","","866","","","","","","","","","","","1","key","1","16.037735849056602","896","250","2"
"","","","","","html-keyboard-response","101","223187","0.0-10.0-5.0","989737","","520","","","","","","","","","","
    <p>How confident are you in your response? Press the corresponding keys from 1 to 5 based on your experience</p>
    <ul id=""confidence-levels"">
      <li id=""conf-1"">1: Not at all confident</li>
      <li id=""conf-2"">2: Slightly confident</li>
      <li id=""conf-3"">3: Somewhat confident</li>
      <li id=""conf-4"">4: Very confident</li>
      <li id=""conf-5"">5: Completely confident</li>
    </ul>","5","","","","","",""
"","","","","","psychophysics","102","224101","0.0-10.0-6.0","989737","","912","","","","","","","","","","","1","key","1","16.054545454545455","896","250","2"
"","","","","","html-keyboard-response","103","224574","0.0-10.0-7.0","989737","","471","","","","","","","","","","
    <p>How confident are you in your response? Press the corresponding keys from 1 to 5 based on your experience</p>
    <ul id=""confidence-levels"">
      <li id=""conf-1"">1: Not at all confident</li>
      <li id=""conf-2"">2: Slightly confident</li>
      <li id=""conf-3"">3: Somewhat confident</li>
      <li id=""conf-4"">4: Very confident</li>
      <li id=""conf-5"">5: Completely confident</li>
    </ul>","5","","","","","",""
"","","","","","psychophysics","104","225526","0.0-10.0-8.0","989737","","948","","","","","","","","","","","1","key","1","16.103448275862068","896","250","2"
"","","","","","html-keyboard-response","105","225997","0.0-10.0-9.0","989737","","471","","","","","","","","","","
    <p>How confident are you in your response? Press the corresponding keys from 1 to 5 based on your experience</p>
    <ul id=""confidence-levels"">
      <li id=""conf-1"">1: Not at all confident</li>
      <li id=""conf-2"">2: Slightly confident</li>
      <li id=""conf-3"">3: Somewhat confident</li>
      <li id=""conf-4"">4: Very confident</li>
      <li id=""conf-5"">5: Completely confident</li>
    </ul>","5","","","","","",""
"","","","","","psychophysics","106","226911","0.0-10.0-10.0","989737","","909","","","","","","","","","","","1","key","1","15.517241379310345","896","250","2"
"","","","","","html-keyboard-response","107","227347","0.0-10.0-11.0","989737","","435","","","","","","","","","","
    <p>How confident are you in your response? Press the corresponding keys from 1 to 5 based on your experience</p>
    <ul id=""confidence-levels"">
      <li id=""conf-1"">1: Not at all confident</li>
      <li id=""conf-2"">2: Slightly confident</li>
      <li id=""conf-3"">3: Somewhat confident</li>
      <li id=""conf-4"">4: Very confident</li>
      <li id=""conf-5"">5: Completely confident</li>
    </ul>","5","","","","","",""
"","","","","","psychophysics","108","228380","0.0-10.0-12.0","989737","","1029","","","","","","","","","","","1","key","1","15.63076923076923","896","250","1"
"","","","","","html-keyboard-response","109","228831","0.0-10.0-13.0","989737","","451","","","","","","","","","","
    <p>How confident are you in your response? Press the corresponding keys from 1 to 5 based on your experience</p>
    <ul id=""confidence-levels"">
      <li id=""conf-1"">1: Not at all confident</li>
      <li id=""conf-2"">2: Slightly confident</li>
      <li id=""conf-3"">3: Somewhat confident</li>
      <li id=""conf-4"">4: Very confident</li>
      <li id=""conf-5"">5: Completely confident</li>
    </ul>","5","","","","","",""
"","","","","","psychophysics","110","229851","0.0-10.0-14.0","989737","","1017","","","","","","","","","","","1","key","1","15.640625","896","250","2"
"","","","","","html-keyboard-response","111","230237","0.0-10.0-15.0","989737","","385","","","","","","","","","","
    <p>How confident are you in your response? Press the corresponding keys from 1 to 5 based on your experience</p>
    <ul id=""confidence-levels"">
      <li id=""conf-1"">1: Not at all confident</li>
      <li id=""conf-2"">2: Slightly confident</li>
      <li id=""conf-3"">3: Somewhat confident</li>
      <li id=""conf-4"">4: Very confident</li>
      <li id=""conf-5"">5: Completely confident</li>
    </ul>","5","","","","","",""
"","","","","","psychophysics","112","231168","0.0-10.0-16.0","989737","","928","","","","","","","","","","","1","key","1","15.517241379310345","896","250","2"
"","","","","","html-keyboard-response","113","231564","0.0-10.0-17.0","989737","","395","","","","","","","","","","
    <p>How confident are you in your response? Press the corresponding keys from 1 to 5 based on your experience</p>
    <ul id=""confidence-levels"">
      <li id=""conf-1"">1: Not at all confident</li>
      <li id=""conf-2"">2: Slightly confident</li>
      <li id=""conf-3"">3: Somewhat confident</li>
      <li id=""conf-4"">4: Very confident</li>
      <li id=""conf-5"">5: Completely confident</li>
    </ul>","5","","","","","",""
"","","","","","psychophysics","114","232468","0.0-10.0-18.0","989737","","901","","","","","","","","","","","1","key","1","16.072727272727274","896","250","2"
"","","","","","html-keyboard-response","115","232924","0.0-10.0-19.0","989737","","454","","","","","","","","","","
    <p>How confident are you in your response? Press the corresponding keys from 1 to 5 based on your experience</p>
    <ul id=""confidence-levels"">
      <li id=""conf-1"">1: Not at all confident</li>
      <li id=""conf-2"">2: Slightly confident</li>
      <li id=""conf-3"">3: Somewhat confident</li>
      <li id=""conf-4"">4: Very confident</li>
      <li id=""conf-5"">5: Completely confident</li>
    </ul>","5","","","","","",""
"","","","","","psychophysics","116","233811","0.0-10.0-20.0","989737","","884","","","","","","","","","","","1","key","1","16.055555555555557","896","250","2"
"","","","","","html-keyboard-response","117","234228","0.0-10.0-21.0","989737","","415","","","","","","","","","","
    <p>How confident are you in your response? Press the corresponding keys from 1 to 5 based on your experience</p>
    <ul id=""confidence-levels"">
      <li id=""conf-1"">1: Not at all confident</li>
      <li id=""conf-2"">2: Slightly confident</li>
      <li id=""conf-3"">3: Somewhat confident</li>
      <li id=""conf-4"">4: Very confident</li>
      <li id=""conf-5"">5: Completely confident</li>
    </ul>","5","","","","","",""
"","","","","","psychophysics","118","235085","0.0-10.0-22.0","989737","","855","","","","","","","","","","","1","key","1","16.03846153846154","896","250","2"
"","","","","","html-keyboard-response","119","235510","0.0-10.0-23.0","989737","","423","","","","","","","","","","
    <p>How confident are you in your response? Press the corresponding keys from 1 to 5 based on your experience</p>
    <ul id=""confidence-levels"">
      <li id=""conf-1"">1: Not at all confident</li>
      <li id=""conf-2"">2: Slightly confident</li>
      <li id=""conf-3"">3: Somewhat confident</li>
      <li id=""conf-4"">4: Very confident</li>
      <li id=""conf-5"">5: Completely confident</li>
    </ul>","5","","","","","",""
"","","","","","psychophysics","120","236378","0.0-10.0-24.0","989737","","865","","","","","","","","","","","1","key","1","16.037735849056602","896","250","2"
"","","","","","html-keyboard-response","121","236786","0.0-10.0-25.0","989737","","407","","","","","","","","","","
    <p>How confident are you in your response? Press the corresponding keys from 1 to 5 based on your experience</p>
    <ul id=""confidence-levels"">
      <li id=""conf-1"">1: Not at all confident</li>
      <li id=""conf-2"">2: Slightly confident</li>
      <li id=""conf-3"">3: Somewhat confident</li>
      <li id=""conf-4"">4: Very confident</li>
      <li id=""conf-5"">5: Completely confident</li>
    </ul>","5","","","","","",""
"","","","","","psychophysics","122","237695","0.0-10.0-26.0","989737","","905","","","","","","","","","","","1","key","1","16.036363636363635","896","250","2"
"","","","","","html-keyboard-response","123","238098","0.0-10.0-27.0","989737","","403","","","","","","","","","","
    <p>How confident are you in your response? Press the corresponding keys from 1 to 5 based on your experience</p>
    <ul id=""confidence-levels"">
      <li id=""conf-1"">1: Not at all confident</li>
      <li id=""conf-2"">2: Slightly confident</li>
      <li id=""conf-3"">3: Somewhat confident</li>
      <li id=""conf-4"">4: Very confident</li>
      <li id=""conf-5"">5: Completely confident</li>
    </ul>","5","","","","","",""
"","","","","","psychophysics","124","238876","0.0-10.0-28.0","989737","","774","","","","","","","","","","","1","key","1","15.34","896","250","1"
"","","","","","html-keyboard-response","125","239283","0.0-10.0-29.0","989737","","407","","","","","","","","","","
    <p>How confident are you in your response? Press the corresponding keys from 1 to 5 based on your experience</p>
    <ul id=""confidence-levels"">
      <li id=""conf-1"">1: Not at all confident</li>
      <li id=""conf-2"">2: Slightly confident</li>
      <li id=""conf-3"">3: Somewhat confident</li>
      <li id=""conf-4"">4: Very confident</li>
      <li id=""conf-5"">5: Completely confident</li>
    </ul>","5","","","","","",""
"","","","","","psychophysics","126","240069","0.0-10.0-30.0","989737","","781","","","","","","","","","","","1","key","1","15.34","896","250","2"
"","","","","","html-keyboard-response","127","240489","0.0-10.0-31.0","989737","","420","","","","","","","","","","
    <p>How confident are you in your response? Press the corresponding keys from 1 to 5 based on your experience</p>
    <ul id=""confidence-levels"">
      <li id=""conf-1"">1: Not at all confident</li>
      <li id=""conf-2"">2: Slightly confident</li>
      <li id=""conf-3"">3: Somewhat confident</li>
      <li id=""conf-4"">4: Very confident</li>
      <li id=""conf-5"">5: Completely confident</li>
    </ul>","5","","","","","",""
"","","","","","psychophysics","128","241277","0.0-10.0-32.0","989737","","783","","","","","","","","","","","1","key","1","15.32","896","250","2"
"","","","","","html-keyboard-response","129","241715","0.0-10.0-33.0","989737","","437","","","","","","","","","","
    <p>How confident are you in your response? Press the corresponding keys from 1 to 5 based on your experience</p>
    <ul id=""confidence-levels"">
      <li id=""conf-1"">1: Not at all confident</li>
      <li id=""conf-2"">2: Slightly confident</li>
      <li id=""conf-3"">3: Somewhat confident</li>
      <li id=""conf-4"">4: Very confident</li>
      <li id=""conf-5"">5: Completely confident</li>
    </ul>","5","","","","","",""
"","","","","","psychophysics","130","242478","0.0-10.0-34.0","989737","","759","","","","","","","","","","","1","key","1","15.326530612244898","896","250","2"
"","","","","","html-keyboard-response","131","242910","0.0-10.0-35.0","989737","","432","","","","","","","","","","
    <p>How confident are you in your response? Press the corresponding keys from 1 to 5 based on your experience</p>
    <ul id=""confidence-levels"">
      <li id=""conf-1"">1: Not at all confident</li>
      <li id=""conf-2"">2: Slightly confident</li>
      <li id=""conf-3"">3: Somewhat confident</li>
      <li id=""conf-4"">4: Very confident</li>
      <li id=""conf-5"">5: Completely confident</li>
    </ul>","5","","","","","",""
"","","","","","psychophysics","132","244032","0.0-10.0-36.0","989737","","1118","","","","","","","","","","","1","key","1","15.714285714285714","896","250","1"
"","","","","","html-keyboard-response","133","244470","0.0-10.0-37.0","989737","","438","","","","","","","","","","
    <p>How confident are you in your response? Press the corresponding keys from 1 to 5 based on your experience</p>
    <ul id=""confidence-levels"">
      <li id=""conf-1"">1: Not at all confident</li>
      <li id=""conf-2"">2: Slightly confident</li>
      <li id=""conf-3"">3: Somewhat confident</li>
      <li id=""conf-4"">4: Very confident</li>
      <li id=""conf-5"">5: Completely confident</li>
    </ul>","5","","","","","",""
"","","","","","psychophysics","134","245610","0.0-10.0-38.0","989737","","1137","","","","","","","","","","","1","key","1","16.18840579710145","896","250","2"
"","","","","","html-keyboard-response","135","246005","0.0-10.0-39.0","989737","","394","","","","","","","","","","
    <p>How confident are you in your response? Press the corresponding keys from 1 to 5 based on your experience</p>
    <ul id=""confidence-levels"">
      <li id=""conf-1"">1: Not at all confident</li>
      <li id=""conf-2"">2: Slightly confident</li>
      <li id=""conf-3"">3: Somewhat confident</li>
      <li id=""conf-4"">4: Very confident</li>
      <li id=""conf-5"">5: Completely confident</li>
    </ul>","5","","","","","",""
"","","","","","psychophysics","136","247151","0.0-10.0-40.0","989737","","1142","","","","","","","","","","","1","key","1","15.732394366197184","896","250","1"
"","","","","","html-keyboard-response","137","247519","0.0-10.0-41.0","989737","","367","","","","","","","","","","
    <p>How confident are you in your response? Press the corresponding keys from 1 to 5 based on your experience</p>
    <ul id=""confidence-levels"">
      <li id=""conf-1"">1: Not at all confident</li>
      <li id=""conf-2"">2: Slightly confident</li>
      <li id=""conf-3"">3: Somewhat confident</li>
      <li id=""conf-4"">4: Very confident</li>
      <li id=""conf-5"">5: Completely confident</li>
    </ul>","5","","","","","",""
"","","","","","psychophysics","138","248527","0.0-10.0-42.0","989737","","1005","","","","","","","","","","","1","key","1","15.625","896","250","1"
"","","","","","html-keyboard-response","139","248877","0.0-10.0-43.0","989737","","349","","","","","","","","","","
    <p>How confident are you in your response? Press the corresponding keys from 1 to 5 based on your experience</p>
    <ul id=""confidence-levels"">
      <li id=""conf-1"">1: Not at all confident</li>
      <li id=""conf-2"">2: Slightly confident</li>
      <li id=""conf-3"">3: Somewhat confident</li>
      <li id=""conf-4"">4: Very confident</li>
      <li id=""conf-5"">5: Completely confident</li>
    </ul>","5","","","","","",""
"","","","","","psychophysics","140","249896","0.0-10.0-44.0","989737","","1015","","","","","","","","","","","1","key","1","15.625","896","250","1"
"","","","","","html-keyboard-response","141","250291","0.0-10.0-45.0","989737","","393","","","","","","","","","","
    <p>How confident are you in your response? Press the corresponding keys from 1 to 5 based on your experience</p>
    <ul id=""confidence-levels"">
      <li id=""conf-1"">1: Not at all confident</li>
      <li id=""conf-2"">2: Slightly confident</li>
      <li id=""conf-3"">3: Somewhat confident</li>
      <li id=""conf-4"">4: Very confident</li>
      <li id=""conf-5"">5: Completely confident</li>
    </ul>","5","","","","","",""
"","","","","","psychophysics","142","252500","0.0-10.0-46.0","989737","","2206","","","","","","","","","","","1","key","1","16.17037037037037","896","250","1"
"","","","","","html-keyboard-response","143","253303","0.0-10.0-47.0","989737","","802","","","","","","","","","","
    <p>How confident are you in your response? Press the corresponding keys from 1 to 5 based on your experience</p>
    <ul id=""confidence-levels"">
      <li id=""conf-1"">1: Not at all confident</li>
      <li id=""conf-2"">2: Slightly confident</li>
      <li id=""conf-3"">3: Somewhat confident</li>
      <li id=""conf-4"">4: Very confident</li>
      <li id=""conf-5"">5: Completely confident</li>
    </ul>","5","","","","","",""
"","","","","","psychophysics","144","254289","0.0-10.0-48.0","989737","","981","","","","","","","","","","","1","key","1","15.573770491803279","896","250","2"
"","","","","","html-keyboard-response","145","254757","0.0-10.0-49.0","989737","","467","","","","","","","","","","
    <p>How confident are you in your response? Press the corresponding keys from 1 to 5 based on your experience</p>
    <ul id=""confidence-levels"">
      <li id=""conf-1"">1: Not at all confident</li>
      <li id=""conf-2"">2: Slightly confident</li>
      <li id=""conf-3"">3: Somewhat confident</li>
      <li id=""conf-4"">4: Very confident</li>
      <li id=""conf-5"">5: Completely confident</li>
    </ul>","5","","","","","",""
"","","","","","psychophysics","146","255729","0.0-10.0-50.0","989737","","968","","","","","","","","","","","1","key","1","15.573770491803279","896","250","1"
"","","","","","html-keyboard-response","147","256206","0.0-10.0-51.0","989737","","475","","","","","","","","","","
    <p>How confident are you in your response? Press the corresponding keys from 1 to 5 based on your experience</p>
    <ul id=""confidence-levels"">
      <li id=""conf-1"">1: Not at all confident</li>
      <li id=""conf-2"">2: Slightly confident</li>
      <li id=""conf-3"">3: Somewhat confident</li>
      <li id=""conf-4"">4: Very confident</li>
      <li id=""conf-5"">5: Completely confident</li>
    </ul>","5","","","","","",""
"","","","","","psychophysics","148","257236","0.0-10.0-52.0","989737","","1026","","","","","","","","","","","1","key","1","15.625","896","250","2"
"","","","","","html-keyboard-response","149","257643","0.0-10.0-53.0","989737","","406","","","","","","","","","","
    <p>How confident are you in your response? Press the corresponding keys from 1 to 5 based on your experience</p>
    <ul id=""confidence-levels"">
      <li id=""conf-1"">1: Not at all confident</li>
      <li id=""conf-2"">2: Slightly confident</li>
      <li id=""conf-3"">3: Somewhat confident</li>
      <li id=""conf-4"">4: Very confident</li>
      <li id=""conf-5"">5: Completely confident</li>
    </ul>","5","","","","","",""
"","","","","","psychophysics","150","258516","0.0-10.0-54.0","989737","","870","","","","","","","","","","","1","key","1","15.472727272727273","896","250","1"
"","","","","","html-keyboard-response","151","258877","0.0-10.0-55.0","989737","","360","","","","","","","","","","
    <p>How confident are you in your response? Press the corresponding keys from 1 to 5 based on your experience</p>
    <ul id=""confidence-levels"">
      <li id=""conf-1"">1: Not at all confident</li>
      <li id=""conf-2"">2: Slightly confident</li>
      <li id=""conf-3"">3: Somewhat confident</li>
      <li id=""conf-4"">4: Very confident</li>
      <li id=""conf-5"">5: Completely confident</li>
    </ul>","5","","","","","",""
"","","","","","psychophysics","152","259830","0.0-10.0-56.0","989737","","949","","","","","","","","","","","1","key","1","15.566666666666666","896","250","2"
"","","","","","html-keyboard-response","153","260226","0.0-10.0-57.0","989737","","396","","","","","","","","","","
    <p>How confident are you in your response? Press the corresponding keys from 1 to 5 based on your experience</p>
    <ul id=""confidence-levels"">
      <li id=""conf-1"">1: Not at all confident</li>
      <li id=""conf-2"">2: Slightly confident</li>
      <li id=""conf-3"">3: Somewhat confident</li>
      <li id=""conf-4"">4: Very confident</li>
      <li id=""conf-5"">5: Completely confident</li>
    </ul>","5","","","","","",""
"","","","","","psychophysics","154","261160","0.0-10.0-58.0","989737","","930","","","","","","","","","","","1","key","1","16.087719298245613","896","250","2"
"","","","","","html-keyboard-response","155","261566","0.0-10.0-59.0","989737","","405","","","","","","","","","","
    <p>How confident are you in your response? Press the corresponding keys from 1 to 5 based on your experience</p>
    <ul id=""confidence-levels"">
      <li id=""conf-1"">1: Not at all confident</li>
      <li id=""conf-2"">2: Slightly confident</li>
      <li id=""conf-3"">3: Somewhat confident</li>
      <li id=""conf-4"">4: Very confident</li>
      <li id=""conf-5"">5: Completely confident</li>
    </ul>","5","","","","","",""
"","","","","","psychophysics","156","262500","0.0-10.0-60.0","989737","","931","","","","","","","","","","","1","key","1","15.542372881355933","896","250","1"
"","","","","","html-keyboard-response","157","262905","0.0-10.0-61.0","989737","","404","","","","","","","","","","
    <p>How confident are you in your response? Press the corresponding keys from 1 to 5 based on your experience</p>
    <ul id=""confidence-levels"">
      <li id=""conf-1"">1: Not at all confident</li>
      <li id=""conf-2"">2: Slightly confident</li>
      <li id=""conf-3"">3: Somewhat confident</li>
      <li id=""conf-4"">4: Very confident</li>
      <li id=""conf-5"">5: Completely confident</li>
    </ul>","5","","","","","",""
"","","","","","psychophysics","158","264014","0.0-10.0-62.0","989737","","1105","","","","","","","","","","","1","key","1","16.17910447761194","896","250","2"
"","","","","","html-keyboard-response","159","264471","0.0-10.0-63.0","989737","","455","","","","","","","","","","
    <p>How confident are you in your response? Press the corresponding keys from 1 to 5 based on your experience</p>
    <ul id=""confidence-levels"">
      <li id=""conf-1"">1: Not at all confident</li>
      <li id=""conf-2"">2: Slightly confident</li>
      <li id=""conf-3"">3: Somewhat confident</li>
      <li id=""conf-4"">4: Very confident</li>
      <li id=""conf-5"">5: Completely confident</li>
    </ul>","5","","","","","",""
"","","","","","psychophysics","160","265433","0.0-10.0-64.0","989737","","959","","","","","","","","","","","1","key","1","15.583333333333334","896","250","2"
"","","","","","html-keyboard-response","161","265820","0.0-10.0-65.0","989737","","387","","","","","","","","","","
    <p>How confident are you in your response? Press the corresponding keys from 1 to 5 based on your experience</p>
    <ul id=""confidence-levels"">
      <li id=""conf-1"">1: Not at all confident</li>
      <li id=""conf-2"">2: Slightly confident</li>
      <li id=""conf-3"">3: Somewhat confident</li>
      <li id=""conf-4"">4: Very confident</li>
      <li id=""conf-5"">5: Completely confident</li>
    </ul>","5","","","","","",""
"","","","","","psychophysics","162","266795","0.0-10.0-66.0","989737","","972","","","","","","","","","","","1","key","1","16.084745762711865","896","250","2"
"","","","","","html-keyboard-response","163","267197","0.0-10.0-67.0","989737","","402","","","","","","","","","","
    <p>How confident are you in your response? Press the corresponding keys from 1 to 5 based on your experience</p>
    <ul id=""confidence-levels"">
      <li id=""conf-1"">1: Not at all confident</li>
      <li id=""conf-2"">2: Slightly confident</li>
      <li id=""conf-3"">3: Somewhat confident</li>
      <li id=""conf-4"">4: Very confident</li>
      <li id=""conf-5"">5: Completely confident</li>
    </ul>","5","","","","","",""
"","","","","","psychophysics","164","268161","0.0-10.0-68.0","989737","","961","","","","","","","","","","","1","key","1","15.573770491803279","896","250","2"
"","","","","","html-keyboard-response","165","268683","0.0-10.0-69.0","989737","","520","","","","","","","","","","
    <p>How confident are you in your response? Press the corresponding keys from 1 to 5 based on your experience</p>
    <ul id=""confidence-levels"">
      <li id=""conf-1"">1: Not at all confident</li>
      <li id=""conf-2"">2: Slightly confident</li>
      <li id=""conf-3"">3: Somewhat confident</li>
      <li id=""conf-4"">4: Very confident</li>
      <li id=""conf-5"">5: Completely confident</li>
    </ul>","5","","","","","",""
"","","","","","psychophysics","166","269660","0.0-10.0-70.0","989737","","973","","","","","","","","","","","1","key","1","15.596774193548388","896","250","2"
"","","","","","html-keyboard-response","167","270087","0.0-10.0-71.0","989737","","426","","","","","","","","","","
    <p>How confident are you in your response? Press the corresponding keys from 1 to 5 based on your experience</p>
    <ul id=""confidence-levels"">
      <li id=""conf-1"">1: Not at all confident</li>
      <li id=""conf-2"">2: Slightly confident</li>
      <li id=""conf-3"">3: Somewhat confident</li>
      <li id=""conf-4"">4: Very confident</li>
      <li id=""conf-5"">5: Completely confident</li>
    </ul>","5","","","","","",""
"","","","","","psychophysics","168","270982","0.0-10.0-72.0","989737","","890","","","","","","","","","","","1","key","1","15.464285714285714","896","250","1"
"","","","","","html-keyboard-response","169","271431","0.0-10.0-73.0","989737","","448","","","","","","","","","","
    <p>How confident are you in your response? Press the corresponding keys from 1 to 5 based on your experience</p>
    <ul id=""confidence-levels"">
      <li id=""conf-1"">1: Not at all confident</li>
      <li id=""conf-2"">2: Slightly confident</li>
      <li id=""conf-3"">3: Somewhat confident</li>
      <li id=""conf-4"">4: Very confident</li>
      <li id=""conf-5"">5: Completely confident</li>
    </ul>","5","","","","","",""
"","","","","","psychophysics","170","272353","0.0-10.0-74.0","989737","","918","","","","","","","","","","","1","key","1","15.517241379310345","896","250","1"
"","","","","","html-keyboard-response","171","272756","0.0-10.0-75.0","989737","","402","","","","","","","","","","
    <p>How confident are you in your response? Press the corresponding keys from 1 to 5 based on your experience</p>
    <ul id=""confidence-levels"">
      <li id=""conf-1"">1: Not at all confident</li>
      <li id=""conf-2"">2: Slightly confident</li>
      <li id=""conf-3"">3: Somewhat confident</li>
      <li id=""conf-4"">4: Very confident</li>
      <li id=""conf-5"">5: Completely confident</li>
    </ul>","5","","","","","",""
"","","","","","psychophysics","172","273680","0.0-10.0-76.0","989737","","920","","","","","","","","","","","1","key","1","15.517241379310345","896","250","1"
"","","","","","html-keyboard-response","173","274079","0.0-10.0-77.0","989737","","399","","","","","","","","","","
    <p>How confident are you in your response? Press the corresponding keys from 1 to 5 based on your experience</p>
    <ul id=""confidence-levels"">
      <li id=""conf-1"">1: Not at all confident</li>
      <li id=""conf-2"">2: Slightly confident</li>
      <li id=""conf-3"">3: Somewhat confident</li>
      <li id=""conf-4"">4: Very confident</li>
      <li id=""conf-5"">5: Completely confident</li>
    </ul>","5","","","","","",""
"","","","","","html-keyboard-response","174","276045","0.0-11.0","989737","","1965","","","","","","","","","","Your average response time is 800.359 ms You are doing great"," ","","","","","",""
"","","","","","html-button-response","175","341730","0.0-12.0","989737","","65684","","","","","","","","","","<p>You have successfully completed one block of the experiment. The next part of the experiment can be started in <span id=""clock"">1:00</span> <br>You can take a break for a minute or more if you like and Press continue when you are ready","0","","","","","",""
"","","","","","psychophysics","176","342413","0.0-13.0-0.0","989737","","679","","","","","","","","","","","0","key","0","15.159090909090908","896","250","1"
"","","","","","html-keyboard-response","177","344888","0.0-13.0-1.0","989737","","2475","","","","","","","","","","
    <p>How confident are you in your response? Press the corresponding keys from 1 to 5 based on your experience</p>
    <ul id=""confidence-levels"">
      <li id=""conf-1"">1: Not at all confident</li>
      <li id=""conf-2"">2: Slightly confident</li>
      <li id=""conf-3"">3: Somewhat confident</li>
      <li id=""conf-4"">4: Very confident</li>
      <li id=""conf-5"">5: Completely confident</li>
    </ul>","5","","","","","",""
"","","","","","psychophysics","178","345866","0.0-13.0-2.0","989737","","973","","","","","","","","","","","1","key","1","15.573770491803279","896","250","1"
"","","","","","html-keyboard-response","179","346422","0.0-13.0-3.0","989737","","555","","","","","","","","","","
    <p>How confident are you in your response? Press the corresponding keys from 1 to 5 based on your experience</p>
    <ul id=""confidence-levels"">
      <li id=""conf-1"">1: Not at all confident</li>
      <li id=""conf-2"">2: Slightly confident</li>
      <li id=""conf-3"">3: Somewhat confident</li>
      <li id=""conf-4"">4: Very confident</li>
      <li id=""conf-5"">5: Completely confident</li>
    </ul>","5","","","","","",""
"","","","","","psychophysics","180","347678","0.0-13.0-4.0","989737","","1252","","","","","","","","","","","0","key","0","15.807692307692308","896","250","1"
"","","","","","html-keyboard-response","181","348616","0.0-13.0-5.0","989737","","937","","","","","","","","","","
    <p>How confident are you in your response? Press the corresponding keys from 1 to 5 based on your experience</p>
    <ul id=""confidence-levels"">
      <li id=""conf-1"">1: Not at all confident</li>
      <li id=""conf-2"">2: Slightly confident</li>
      <li id=""conf-3"">3: Somewhat confident</li>
      <li id=""conf-4"">4: Very confident</li>
      <li id=""conf-5"">5: Completely confident</li>
    </ul>","5","","","","","",""
"","","","","","psychophysics","182","349637","0.0-13.0-6.0","989737","","1017","","","","","","","","","","","1","key","1","15.625","896","250","1"
"","","","","","html-keyboard-response","183","350086","0.0-13.0-7.0","989737","","448","","","","","","","","","","
    <p>How confident are you in your response? Press the corresponding keys from 1 to 5 based on your experience</p>
    <ul id=""confidence-levels"">
      <li id=""conf-1"">1: Not at all confident</li>
      <li id=""conf-2"">2: Slightly confident</li>
      <li id=""conf-3"">3: Somewhat confident</li>
      <li id=""conf-4"">4: Very confident</li>
      <li id=""conf-5"">5: Completely confident</li>
    </ul>","5","","","","","",""
"","","","","","psychophysics","184","351161","0.0-13.0-8.0","989737","","1071","","","","","","","","","","","1","key","1","15.671641791044776","896","250","1"
"","","","","","html-keyboard-response","185","351824","0.0-13.0-9.0","989737","","661","","","","","","","","","","
    <p>How confident are you in your response? Press the corresponding keys from 1 to 5 based on your experience</p>
    <ul id=""confidence-levels"">
      <li id=""conf-1"">1: Not at all confident</li>
      <li id=""conf-2"">2: Slightly confident</li>
      <li id=""conf-3"">3: Somewhat confident</li>
      <li id=""conf-4"">4: Very confident</li>
      <li id=""conf-5"">5: Completely confident</li>
    </ul>","5","","","","","",""
"","","","","","psychophysics","186","352860","0.0-13.0-10.0","989737","","1032","","","","","","","","","","","1","key","1","15.63076923076923","896","250","1"
"","","","","","html-keyboard-response","187","353338","0.0-13.0-11.0","989737","","477","","","","","","","","","","
    <p>How confident are you in your response? Press the corresponding keys from 1 to 5 based on your experience</p>
    <ul id=""confidence-levels"">
      <li id=""conf-1"">1: Not at all confident</li>
      <li id=""conf-2"">2: Slightly confident</li>
      <li id=""conf-3"">3: Somewhat confident</li>
      <li id=""conf-4"">4: Very confident</li>
      <li id=""conf-5"">5: Completely confident</li>
    </ul>","5","","","","","",""
"","","","","","psychophysics","188","354431","0.0-13.0-12.0","989737","","1091","","","","","","","","","","","1","key","1","15.691176470588236","896","250","1"
"","","","","","html-keyboard-response","189","354931","0.0-13.0-13.0","989737","","498","","","","","","","","","","
    <p>How confident are you in your response? Press the corresponding keys from 1 to 5 based on your experience</p>
    <ul id=""confidence-levels"">
      <li id=""conf-1"">1: Not at all confident</li>
      <li id=""conf-2"">2: Slightly confident</li>
      <li id=""conf-3"">3: Somewhat confident</li>
      <li id=""conf-4"">4: Very confident</li>
      <li id=""conf-5"">5: Completely confident</li>
    </ul>","5","","","","","",""
"","","","","","psychophysics","190","355910","0.0-13.0-14.0","989737","","975","","","","","","","","","","","1","key","1","15.596774193548388","896","250","1"
"","","","","","html-keyboard-response","191","356278","0.0-13.0-15.0","989737","","367","","","","","","","","","","
    <p>How confident are you in your response? Press the corresponding keys from 1 to 5 based on your experience</p>
    <ul id=""confidence-levels"">
      <li id=""conf-1"">1: Not at all confident</li>
      <li id=""conf-2"">2: Slightly confident</li>
      <li id=""conf-3"">3: Somewhat confident</li>
      <li id=""conf-4"">4: Very confident</li>
      <li id=""conf-5"">5: Completely confident</li>
    </ul>","5","","","","","",""
"","","","","","psychophysics","192","357328","0.0-13.0-16.0","989737","","1045","","","","","","","","","","","1","key","1","15.666666666666666","896","250","1"
"","","","","","html-keyboard-response","193","357688","0.0-13.0-17.0","989737","","359","","","","","","","","","","
    <p>How confident are you in your response? Press the corresponding keys from 1 to 5 based on your experience</p>
    <ul id=""confidence-levels"">
      <li id=""conf-1"">1: Not at all confident</li>
      <li id=""conf-2"">2: Slightly confident</li>
      <li id=""conf-3"">3: Somewhat confident</li>
      <li id=""conf-4"">4: Very confident</li>
      <li id=""conf-5"">5: Completely confident</li>
    </ul>","5","","","","","",""
"","","","","","psychophysics","194","358613","0.0-13.0-18.0","989737","","921","","","","","","","","","","","1","key","1","15.491525423728813","896","250","1"
"","","","","","html-keyboard-response","195","358981","0.0-13.0-19.0","989737","","367","","","","","","","","","","
    <p>How confident are you in your response? Press the corresponding keys from 1 to 5 based on your experience</p>
    <ul id=""confidence-levels"">
      <li id=""conf-1"">1: Not at all confident</li>
      <li id=""conf-2"">2: Slightly confident</li>
      <li id=""conf-3"">3: Somewhat confident</li>
      <li id=""conf-4"">4: Very confident</li>
      <li id=""conf-5"">5: Completely confident</li>
    </ul>","5","","","","","",""
"","","","","","psychophysics","196","360003","0.0-13.0-20.0","989737","","1019","","","","","","","","","","","1","key","1","15.640625","896","250","1"
"","","","","","html-keyboard-response","197","360451","0.0-13.0-21.0","989737","","447","","","","","","","","","","
    <p>How confident are you in your response? Press the corresponding keys from 1 to 5 based on your experience</p>
    <ul id=""confidence-levels"">
      <li id=""conf-1"">1: Not at all confident</li>
      <li id=""conf-2"">2: Slightly confident</li>
      <li id=""conf-3"">3: Somewhat confident</li>
      <li id=""conf-4"">4: Very confident</li>
      <li id=""conf-5"">5: Completely confident</li>
    </ul>","5","","","","","",""
"","","","","","psychophysics","198","361738","0.0-13.0-22.0","989737","","1284","","","","","","","","","","","1","key","1","15.825","896","250","1"
"","","","","","html-keyboard-response","199","362445","0.0-13.0-23.0","989737","","707","","","","","","","","","","
    <p>How confident are you in your response? Press the corresponding keys from 1 to 5 based on your experience</p>
    <ul id=""confidence-levels"">
      <li id=""conf-1"">1: Not at all confident</li>
      <li id=""conf-2"">2: Slightly confident</li>
      <li id=""conf-3"">3: Somewhat confident</li>
      <li id=""conf-4"">4: Very confident</li>
      <li id=""conf-5"">5: Completely confident</li>
    </ul>","5","","","","","",""
"","","","","","psychophysics","200","363444","0.0-13.0-24.0","989737","","996","","","","","","","","","","","1","key","1","15.619047619047619","896","250","1"
"","","","","","html-keyboard-response","201","363913","0.0-13.0-25.0","989737","","468","","","","","","","","","","
    <p>How confident are you in your response? Press the corresponding keys from 1 to 5 based on your experience</p>
    <ul id=""confidence-levels"">
      <li id=""conf-1"">1: Not at all confident</li>
      <li id=""conf-2"">2: Slightly confident</li>
      <li id=""conf-3"">3: Somewhat confident</li>
      <li id=""conf-4"">4: Very confident</li>
      <li id=""conf-5"">5: Completely confident</li>
    </ul>","5","","","","","",""
"","","","","","psychophysics","202","364902","0.0-13.0-26.0","989737","","983","","","","","","","","","","","1","key","1","15.596774193548388","896","250","1"
"","","","","","html-keyboard-response","203","365310","0.0-13.0-27.0","989737","","408","","","","","","","","","","
    <p>How confident are you in your response? Press the corresponding keys from 1 to 5 based on your experience</p>
    <ul id=""confidence-levels"">
      <li id=""conf-1"">1: Not at all confident</li>
      <li id=""conf-2"">2: Slightly confident</li>
      <li id=""conf-3"">3: Somewhat confident</li>
      <li id=""conf-4"">4: Very confident</li>
      <li id=""conf-5"">5: Completely confident</li>
    </ul>","5","","","","","",""
"","","","","","psychophysics","204","366277","0.0-13.0-28.0","989737","","964","","","","","","","","","","","1","key","1","15.59016393442623","896","250","1"
"","","","","","html-keyboard-response","205","366672","0.0-13.0-29.0","989737","","394","","","","","","","","","","
    <p>How confident are you in your response? Press the corresponding keys from 1 to 5 based on your experience</p>
    <ul id=""confidence-levels"">
      <li id=""conf-1"">1: Not at all confident</li>
      <li id=""conf-2"">2: Slightly confident</li>
      <li id=""conf-3"">3: Somewhat confident</li>
      <li id=""conf-4"">4: Very confident</li>
      <li id=""conf-5"">5: Completely confident</li>
    </ul>","5","","","","","",""
"","","","","","psychophysics","206","367662","0.0-13.0-30.0","989737","","986","","","","","","","","","","","1","key","1","15.596774193548388","896","250","1"
"","","","","","html-keyboard-response","207","368054","0.0-13.0-31.0","989737","","392","","","","","","","","","","
    <p>How confident are you in your response? Press the corresponding keys from 1 to 5 based on your experience</p>
    <ul id=""confidence-levels"">
      <li id=""conf-1"">1: Not at all confident</li>
      <li id=""conf-2"">2: Slightly confident</li>
      <li id=""conf-3"">3: Somewhat confident</li>
      <li id=""conf-4"">4: Very confident</li>
      <li id=""conf-5"">5: Completely confident</li>
    </ul>","5","","","","","",""
"","","","","","psychophysics","208","368970","0.0-13.0-32.0","989737","","914","","","","","","","","","","","1","key","1","15.508771929824562","896","250","1"
"","","","","","html-keyboard-response","209","369325","0.0-13.0-33.0","989737","","353","","","","","","","","","","
    <p>How confident are you in your response? Press the corresponding keys from 1 to 5 based on your experience</p>
    <ul id=""confidence-levels"">
      <li id=""conf-1"">1: Not at all confident</li>
      <li id=""conf-2"">2: Slightly confident</li>
      <li id=""conf-3"">3: Somewhat confident</li>
      <li id=""conf-4"">4: Very confident</li>
      <li id=""conf-5"">5: Completely confident</li>
    </ul>","5","","","","","",""
"","","","","","psychophysics","210","370237","0.0-13.0-34.0","989737","","909","","","","","","","","","","","1","key","1","15.491228070175438","896","250","1"
"","","","","","html-keyboard-response","211","370645","0.0-13.0-35.0","989737","","407","","","","","","","","","","
    <p>How confident are you in your response? Press the corresponding keys from 1 to 5 based on your experience</p>
    <ul id=""confidence-levels"">
      <li id=""conf-1"">1: Not at all confident</li>
      <li id=""conf-2"">2: Slightly confident</li>
      <li id=""conf-3"">3: Somewhat confident</li>
      <li id=""conf-4"">4: Very confident</li>
      <li id=""conf-5"">5: Completely confident</li>
    </ul>","5","","","","","",""
"","","","","","psychophysics","212","371800","0.0-13.0-36.0","989737","","1150","","","","","","","","","","","0","key","0","15.73611111111111","896","250","1"
"","","","","","html-keyboard-response","213","372346","0.0-13.0-37.0","989737","","546","","","","","","","","","","
    <p>How confident are you in your response? Press the corresponding keys from 1 to 5 based on your experience</p>
    <ul id=""confidence-levels"">
      <li id=""conf-1"">1: Not at all confident</li>
      <li id=""conf-2"">2: Slightly confident</li>
      <li id=""conf-3"">3: Somewhat confident</li>
      <li id=""conf-4"">4: Very confident</li>
      <li id=""conf-5"">5: Completely confident</li>
    </ul>","5","","","","","",""
"","","","","","psychophysics","214","373244","0.0-13.0-38.0","989737","","895","","","","","","","","","","","1","key","1","15.508771929824562","896","250","1"
"","","","","","html-keyboard-response","215","373580","0.0-13.0-39.0","989737","","335","","","","","","","","","","
    <p>How confident are you in your response? Press the corresponding keys from 1 to 5 based on your experience</p>
    <ul id=""confidence-levels"">
      <li id=""conf-1"">1: Not at all confident</li>
      <li id=""conf-2"">2: Slightly confident</li>
      <li id=""conf-3"">3: Somewhat confident</li>
      <li id=""conf-4"">4: Very confident</li>
      <li id=""conf-5"">5: Completely confident</li>
    </ul>","5","","","","","",""
"","","","","","psychophysics","216","374560","0.0-13.0-40.0","989737","","977","","","","","","","","","","","1","key","1","15.596774193548388","896","250","1"
"","","","","","html-keyboard-response","217","374975","0.0-13.0-41.0","989737","","414","","","","","","","","","","
    <p>How confident are you in your response? Press the corresponding keys from 1 to 5 based on your experience</p>
    <ul id=""confidence-levels"">
      <li id=""conf-1"">1: Not at all confident</li>
      <li id=""conf-2"">2: Slightly confident</li>
      <li id=""conf-3"">3: Somewhat confident</li>
      <li id=""conf-4"">4: Very confident</li>
      <li id=""conf-5"">5: Completely confident</li>
    </ul>","5","","","","","",""
"","","","","","psychophysics","218","375994","0.0-13.0-42.0","989737","","1017","","","","","","","","","","","1","key","1","15.609375","896","250","1"
"","","","","","html-keyboard-response","219","376397","0.0-13.0-43.0","989737","","401","","","","","","","","","","
    <p>How confident are you in your response? Press the corresponding keys from 1 to 5 based on your experience</p>
    <ul id=""confidence-levels"">
      <li id=""conf-1"">1: Not at all confident</li>
      <li id=""conf-2"">2: Slightly confident</li>
      <li id=""conf-3"">3: Somewhat confident</li>
      <li id=""conf-4"">4: Very confident</li>
      <li id=""conf-5"">5: Completely confident</li>
    </ul>","5","","","","","",""
"","","","","","psychophysics","220","377404","0.0-13.0-44.0","989737","","1003","","","","","","","","","","","1","key","1","15.603174603174603","896","250","1"
"","","","","","html-keyboard-response","221","377836","0.0-13.0-45.0","989737","","432","","","","","","","","","","
    <p>How confident are you in your response? Press the corresponding keys from 1 to 5 based on your experience</p>
    <ul id=""confidence-levels"">
      <li id=""conf-1"">1: Not at all confident</li>
      <li id=""conf-2"">2: Slightly confident</li>
      <li id=""conf-3"">3: Somewhat confident</li>
      <li id=""conf-4"">4: Very confident</li>
      <li id=""conf-5"">5: Completely confident</li>
    </ul>","5","","","","","",""
"","","","","","psychophysics","222","378850","0.0-13.0-46.0","989737","","1009","","","","","","","","","","","1","key","1","15.603174603174603","896","250","1"
"","","","","","html-keyboard-response","223","379258","0.0-13.0-47.0","989737","","407","","","","","","","","","","
    <p>How confident are you in your response? Press the corresponding keys from 1 to 5 based on your experience</p>
    <ul id=""confidence-levels"">
      <li id=""conf-1"">1: Not at all confident</li>
      <li id=""conf-2"">2: Slightly confident</li>
      <li id=""conf-3"">3: Somewhat confident</li>
      <li id=""conf-4"">4: Very confident</li>
      <li id=""conf-5"">5: Completely confident</li>
    </ul>","5","","","","","",""
"","","","","","psychophysics","224","380193","0.0-13.0-48.0","989737","","932","","","","","","","","","","","1","key","1","15.525423728813559","896","250","1"
"","","","","","html-keyboard-response","225","380532","0.0-13.0-49.0","989737","","338","","","","","","","","","","
    <p>How confident are you in your response? Press the corresponding keys from 1 to 5 based on your experience</p>
    <ul id=""confidence-levels"">
      <li id=""conf-1"">1: Not at all confident</li>
      <li id=""conf-2"">2: Slightly confident</li>
      <li id=""conf-3"">3: Somewhat confident</li>
      <li id=""conf-4"">4: Very confident</li>
      <li id=""conf-5"">5: Completely confident</li>
    </ul>","5","","","","","",""
"","","","","","psychophysics","226","381465","0.0-13.0-50.0","989737","","930","","","","","","","","","","","1","key","1","15.525423728813559","896","250","1"
"","","","","","html-keyboard-response","227","381857","0.0-13.0-51.0","989737","","393","","","","","","","","","","
    <p>How confident are you in your response? Press the corresponding keys from 1 to 5 based on your experience</p>
    <ul id=""confidence-levels"">
      <li id=""conf-1"">1: Not at all confident</li>
      <li id=""conf-2"">2: Slightly confident</li>
      <li id=""conf-3"">3: Somewhat confident</li>
      <li id=""conf-4"">4: Very confident</li>
      <li id=""conf-5"">5: Completely confident</li>
    </ul>","5","","","","","",""
"","","","","","psychophysics","228","382840","0.0-13.0-52.0","989737","","979","","","","","","","","","","","1","key","1","15.59016393442623","896","250","1"
"","","","","","html-keyboard-response","229","383237","0.0-13.0-53.0","989737","","397","","","","","","","","","","
    <p>How confident are you in your response? Press the corresponding keys from 1 to 5 based on your experience</p>
    <ul id=""confidence-levels"">
      <li id=""conf-1"">1: Not at all confident</li>
      <li id=""conf-2"">2: Slightly confident</li>
      <li id=""conf-3"">3: Somewhat confident</li>
      <li id=""conf-4"">4: Very confident</li>
      <li id=""conf-5"">5: Completely confident</li>
    </ul>","5","","","","","",""
"","","","","","psychophysics","230","384221","0.0-13.0-54.0","989737","","980","","","","","","","","","","","1","key","1","15.59016393442623","896","250","1"
"","","","","","html-keyboard-response","231","384595","0.0-13.0-55.0","989737","","372","","","","","","","","","","
    <p>How confident are you in your response? Press the corresponding keys from 1 to 5 based on your experience</p>
    <ul id=""confidence-levels"">
      <li id=""conf-1"">1: Not at all confident</li>
      <li id=""conf-2"">2: Slightly confident</li>
      <li id=""conf-3"">3: Somewhat confident</li>
      <li id=""conf-4"">4: Very confident</li>
      <li id=""conf-5"">5: Completely confident</li>
    </ul>","5","","","","","",""
"","","","","","psychophysics","232","385619","0.0-13.0-56.0","989737","","1020","","","","","","","","","","","1","key","1","15.625","896","250","1"
"","","","","","html-keyboard-response","233","386007","0.0-13.0-57.0","989737","","387","","","","","","","","","","
    <p>How confident are you in your response? Press the corresponding keys from 1 to 5 based on your experience</p>
    <ul id=""confidence-levels"">
      <li id=""conf-1"">1: Not at all confident</li>
      <li id=""conf-2"">2: Slightly confident</li>
      <li id=""conf-3"">3: Somewhat confident</li>
      <li id=""conf-4"">4: Very confident</li>
      <li id=""conf-5"">5: Completely confident</li>
    </ul>","5","","","","","",""
"","","","","","psychophysics","234","386905","0.0-13.0-58.0","989737","","896","","","","","","","","","","","1","key","1","15.482142857142858","896","250","1"
"","","","","","html-keyboard-response","235","387260","0.0-13.0-59.0","989737","","354","","","","","","","","","","
    <p>How confident are you in your response? Press the corresponding keys from 1 to 5 based on your experience</p>
    <ul id=""confidence-levels"">
      <li id=""conf-1"">1: Not at all confident</li>
      <li id=""conf-2"">2: Slightly confident</li>
      <li id=""conf-3"">3: Somewhat confident</li>
      <li id=""conf-4"">4: Very confident</li>
      <li id=""conf-5"">5: Completely confident</li>
    </ul>","5","","","","","",""
"","","","","","psychophysics","236","388203","0.0-13.0-60.0","989737","","939","","","","","","","","","","","1","key","1","15.525423728813559","896","250","1"
"","","","","","html-keyboard-response","237","388592","0.0-13.0-61.0","989737","","389","","","","","","","","","","
    <p>How confident are you in your response? Press the corresponding keys from 1 to 5 based on your experience</p>
    <ul id=""confidence-levels"">
      <li id=""conf-1"">1: Not at all confident</li>
      <li id=""conf-2"">2: Slightly confident</li>
      <li id=""conf-3"">3: Somewhat confident</li>
      <li id=""conf-4"">4: Very confident</li>
      <li id=""conf-5"">5: Completely confident</li>
    </ul>","5","","","","","",""
"","","","","","psychophysics","238","389485","0.0-13.0-62.0","989737","","889","","","","","","","","","","","1","key","1","15.464285714285714","896","250","1"
"","","","","","html-keyboard-response","239","389898","0.0-13.0-63.0","989737","","413","","","","","","","","","","
    <p>How confident are you in your response? Press the corresponding keys from 1 to 5 based on your experience</p>
    <ul id=""confidence-levels"">
      <li id=""conf-1"">1: Not at all confident</li>
      <li id=""conf-2"">2: Slightly confident</li>
      <li id=""conf-3"">3: Somewhat confident</li>
      <li id=""conf-4"">4: Very confident</li>
      <li id=""conf-5"">5: Completely confident</li>
    </ul>","5","","","","","",""
"","","","","","psychophysics","240","390794","0.0-13.0-64.0","989737","","892","","","","","","","","","","","1","key","1","15.491228070175438","896","250","1"
"","","","","","html-keyboard-response","241","391173","0.0-13.0-65.0","989737","","378","","","","","","","","","","
    <p>How confident are you in your response? Press the corresponding keys from 1 to 5 based on your experience</p>
    <ul id=""confidence-levels"">
      <li id=""conf-1"">1: Not at all confident</li>
      <li id=""conf-2"">2: Slightly confident</li>
      <li id=""conf-3"">3: Somewhat confident</li>
      <li id=""conf-4"">4: Very confident</li>
      <li id=""conf-5"">5: Completely confident</li>
    </ul>","5","","","","","",""
"","","","","","psychophysics","242","392162","0.0-13.0-66.0","989737","","986","","","","","","","","","","","1","key","1","15.612903225806452","896","250","1"
"","","","","","html-keyboard-response","243","392596","0.0-13.0-67.0","989737","","433","","","","","","","","","","
    <p>How confident are you in your response? Press the corresponding keys from 1 to 5 based on your experience</p>
    <ul id=""confidence-levels"">
      <li id=""conf-1"">1: Not at all confident</li>
      <li id=""conf-2"">2: Slightly confident</li>
      <li id=""conf-3"">3: Somewhat confident</li>
      <li id=""conf-4"">4: Very confident</li>
      <li id=""conf-5"">5: Completely confident</li>
    </ul>","5","","","","","",""
"","","","","","psychophysics","244","393511","0.0-13.0-68.0","989737","","912","","","","","","","","","","","1","key","1","15.53448275862069","896","250","1"
"","","","","","html-keyboard-response","245","394075","0.0-13.0-69.0","989737","","563","","","","","","","","","","
    <p>How confident are you in your response? Press the corresponding keys from 1 to 5 based on your experience</p>
    <ul id=""confidence-levels"">
      <li id=""conf-1"">1: Not at all confident</li>
      <li id=""conf-2"">2: Slightly confident</li>
      <li id=""conf-3"">3: Somewhat confident</li>
      <li id=""conf-4"">4: Very confident</li>
      <li id=""conf-5"">5: Completely confident</li>
    </ul>","5","","","","","",""
"","","","","","psychophysics","246","395093","0.0-13.0-70.0","989737","","1014","","","","","","","","","","","1","key","1","15.609375","896","250","1"
"","","","","","html-keyboard-response","247","395538","0.0-13.0-71.0","989737","","444","","","","","","","","","","
    <p>How confident are you in your response? Press the corresponding keys from 1 to 5 based on your experience</p>
    <ul id=""confidence-levels"">
      <li id=""conf-1"">1: Not at all confident</li>
      <li id=""conf-2"">2: Slightly confident</li>
      <li id=""conf-3"">3: Somewhat confident</li>
      <li id=""conf-4"">4: Very confident</li>
      <li id=""conf-5"">5: Completely confident</li>
    </ul>","5","","","","","",""
"","","","","","psychophysics","248","396500","0.0-13.0-72.0","989737","","958","","","","","","","","","","","1","key","1","15.55","896","250","1"
"","","","","","html-keyboard-response","249","396910","0.0-13.0-73.0","989737","","408","","","","","","","","","","
    <p>How confident are you in your response? Press the corresponding keys from 1 to 5 based on your experience</p>
    <ul id=""confidence-levels"">
      <li id=""conf-1"">1: Not at all confident</li>
      <li id=""conf-2"">2: Slightly confident</li>
      <li id=""conf-3"">3: Somewhat confident</li>
      <li id=""conf-4"">4: Very confident</li>
      <li id=""conf-5"">5: Completely confident</li>
    </ul>","5","","","","","",""
"","","","","","psychophysics","250","397860","0.0-13.0-74.0","989737","","946","","","","","","","","","","","1","key","1","15.55","896","250","1"
"","","","","","html-keyboard-response","251","398319","0.0-13.0-75.0","989737","","458","","","","","","","","","","
    <p>How confident are you in your response? Press the corresponding keys from 1 to 5 based on your experience</p>
    <ul id=""confidence-levels"">
      <li id=""conf-1"">1: Not at all confident</li>
      <li id=""conf-2"">2: Slightly confident</li>
      <li id=""conf-3"">3: Somewhat confident</li>
      <li id=""conf-4"">4: Very confident</li>
      <li id=""conf-5"">5: Completely confident</li>
    </ul>","5","","","","","",""
"","","","","","psychophysics","252","399469","0.0-13.0-76.0","989737","","1145","","","","","","","","","","","1","key","1","15.71830985915493","896","250","1"
"","","","","","html-keyboard-response","253","399918","0.0-13.0-77.0","989737","","447","","","","","","","","","","
    <p>How confident are you in your response? Press the corresponding keys from 1 to 5 based on your experience</p>
    <ul id=""confidence-levels"">
      <li id=""conf-1"">1: Not at all confident</li>
      <li id=""conf-2"">2: Slightly confident</li>
      <li id=""conf-3"">3: Somewhat confident</li>
      <li id=""conf-4"">4: Very confident</li>
      <li id=""conf-5"">5: Completely confident</li>
    </ul>","5","","","","","",""
"","","","","","psychophysics","254","400850","0.0-13.0-78.0","989737","","928","","","","","","","","","","","1","key","1","15.542372881355933","896","250","1"
"","","","","","html-keyboard-response","255","401254","0.0-13.0-79.0","989737","","404","","","","","","","","","","
    <p>How confident are you in your response? Press the corresponding keys from 1 to 5 based on your experience</p>
    <ul id=""confidence-levels"">
      <li id=""conf-1"">1: Not at all confident</li>
      <li id=""conf-2"">2: Slightly confident</li>
      <li id=""conf-3"">3: Somewhat confident</li>
      <li id=""conf-4"">4: Very confident</li>
      <li id=""conf-5"">5: Completely confident</li>
    </ul>","5","","","","","",""
"","","","","","psychophysics","256","402202","0.0-13.0-80.0","989737","","944","","","","","","","","","","","1","key","1","15.542372881355933","896","250","1"
"","","","","","html-keyboard-response","257","402703","0.0-13.0-81.0","989737","","501","","","","","","","","","","
    <p>How confident are you in your response? Press the corresponding keys from 1 to 5 based on your experience</p>
    <ul id=""confidence-levels"">
      <li id=""conf-1"">1: Not at all confident</li>
      <li id=""conf-2"">2: Slightly confident</li>
      <li id=""conf-3"">3: Somewhat confident</li>
      <li id=""conf-4"">4: Very confident</li>
      <li id=""conf-5"">5: Completely confident</li>
    </ul>","5","","","","","",""
"","","","","","psychophysics","258","403698","0.0-13.0-82.0","989737","","990","","","","","","","","","","","1","key","1","15.580645161290322","896","250","1"
"","","","","","html-keyboard-response","259","404079","0.0-13.0-83.0","989737","","381","","","","","","","","","","
    <p>How confident are you in your response? Press the corresponding keys from 1 to 5 based on your experience</p>
    <ul id=""confidence-levels"">
      <li id=""conf-1"">1: Not at all confident</li>
      <li id=""conf-2"">2: Slightly confident</li>
      <li id=""conf-3"">3: Somewhat confident</li>
      <li id=""conf-4"">4: Very confident</li>
      <li id=""conf-5"">5: Completely confident</li>
    </ul>","5","","","","","",""
"","","","","","psychophysics","260","405013","0.0-13.0-84.0","989737","","929","","","","","","","","","","","1","key","1","15.525423728813559","896","250","1"
"","","","","","html-keyboard-response","261","405395","0.0-13.0-85.0","989737","","382","","","","","","","","","","
    <p>How confident are you in your response? Press the corresponding keys from 1 to 5 based on your experience</p>
    <ul id=""confidence-levels"">
      <li id=""conf-1"">1: Not at all confident</li>
      <li id=""conf-2"">2: Slightly confident</li>
      <li id=""conf-3"">3: Somewhat confident</li>
      <li id=""conf-4"">4: Very confident</li>
      <li id=""conf-5"">5: Completely confident</li>
    </ul>","5","","","","","",""
"","","","","","psychophysics","262","406345","0.0-13.0-86.0","989737","","948","","","","","","","","","","","1","key","1","15.55","896","250","1"
"","","","","","html-keyboard-response","263","406780","0.0-13.0-87.0","989737","","433","","","","","","","","","","
    <p>How confident are you in your response? Press the corresponding keys from 1 to 5 based on your experience</p>
    <ul id=""confidence-levels"">
      <li id=""conf-1"">1: Not at all confident</li>
      <li id=""conf-2"">2: Slightly confident</li>
      <li id=""conf-3"">3: Somewhat confident</li>
      <li id=""conf-4"">4: Very confident</li>
      <li id=""conf-5"">5: Completely confident</li>
    </ul>","5","","","","","",""
"","","","","","psychophysics","264","407635","0.0-13.0-88.0","989737","","850","","","","","","","","","","","1","key","1","15.555555555555555","896","250","1"
"","","","","","html-keyboard-response","265","408023","0.0-13.0-89.0","989737","","387","","","","","","","","","","
    <p>How confident are you in your response? Press the corresponding keys from 1 to 5 based on your experience</p>
    <ul id=""confidence-levels"">
      <li id=""conf-1"">1: Not at all confident</li>
      <li id=""conf-2"">2: Slightly confident</li>
      <li id=""conf-3"">3: Somewhat confident</li>
      <li id=""conf-4"">4: Very confident</li>
      <li id=""conf-5"">5: Completely confident</li>
    </ul>","5","","","","","",""
"","","","","","psychophysics","266","409296","0.0-13.0-90.0","989737","","1269","","","","","","","","","","","1","key","1","15.822784810126583","896","250","1"
"","","","","","html-keyboard-response","267","409759","0.0-13.0-91.0","989737","","463","","","","","","","","","","
    <p>How confident are you in your response? Press the corresponding keys from 1 to 5 based on your experience</p>
    <ul id=""confidence-levels"">
      <li id=""conf-1"">1: Not at all confident</li>
      <li id=""conf-2"">2: Slightly confident</li>
      <li id=""conf-3"">3: Somewhat confident</li>
      <li id=""conf-4"">4: Very confident</li>
      <li id=""conf-5"">5: Completely confident</li>
    </ul>","5","","","","","",""
"","","","","","psychophysics","268","410832","0.0-13.0-92.0","989737","","1069","","","","","","","","","","","1","key","1","15.671641791044776","896","250","1"
"","","","","","html-keyboard-response","269","411347","0.0-13.0-93.0","989737","","514","","","","","","","","","","
    <p>How confident are you in your response? Press the corresponding keys from 1 to 5 based on your experience</p>
    <ul id=""confidence-levels"">
      <li id=""conf-1"">1: Not at all confident</li>
      <li id=""conf-2"">2: Slightly confident</li>
      <li id=""conf-3"">3: Somewhat confident</li>
      <li id=""conf-4"">4: Very confident</li>
      <li id=""conf-5"">5: Completely confident</li>
    </ul>","5","","","","","",""
"","","","","","psychophysics","270","412329","0.0-13.0-94.0","989737","","978","","","","","","","","","","","1","key","1","15.580645161290322","896","250","1"
"","","","","","html-keyboard-response","271","413155","0.0-13.0-95.0","989737","","823","","","","","","","","","","
    <p>How confident are you in your response? Press the corresponding keys from 1 to 5 based on your experience</p>
    <ul id=""confidence-levels"">
      <li id=""conf-1"">1: Not at all confident</li>
      <li id=""conf-2"">2: Slightly confident</li>
      <li id=""conf-3"">3: Somewhat confident</li>
      <li id=""conf-4"">4: Very confident</li>
      <li id=""conf-5"">5: Completely confident</li>
    </ul>","5","","","","","",""
"","","","","","psychophysics","272","414286","0.0-13.0-96.0","989737","","1127","","","","","","","","","","","1","key","1","15.714285714285714","896","250","1"
"","","","","","html-keyboard-response","273","414655","0.0-13.0-97.0","989737","","367","","","","","","","","","","
    <p>How confident are you in your response? Press the corresponding keys from 1 to 5 based on your experience</p>
    <ul id=""confidence-levels"">
      <li id=""conf-1"">1: Not at all confident</li>
      <li id=""conf-2"">2: Slightly confident</li>
      <li id=""conf-3"">3: Somewhat confident</li>
      <li id=""conf-4"">4: Very confident</li>
      <li id=""conf-5"">5: Completely confident</li>
    </ul>","5","","","","","",""
"","","","","","html-keyboard-response","274","417461","0.0-14.0","989737","","2806","","","","","","","","","","Your average response time is 741.796 ms You are doing great"," ","","","","","",""
"","","","","","survey-text","275","583753","0.0-15.0","989737","","166290","","","","","","","","","","","{""EasyToUnderstand"":""yes"",""Suggestions"":""some bug fixes are required to make the experiment smoother "",""Interface"":""interface is pretty cool but could be more user-friendly "",""Perception"":""no""}","","","","","",""
"","","","","","html-keyboard-response","276","588754","0.0-16.0","989737","","null","","","","","","","","","","You have successfully completed all the trials. Thank you for your time. Goodbye :)","null","","","","","",""
