"success","timeout","failed_images","failed_audio","failed_video","trial_type","trial_index","time_elapsed","internal_node_id","participant_id","view_history","rt","item_width_mm","item_height_mm","item_width_px","px2mm","view_dist_mm","item_width_deg","px2deg","win_width_deg","win_height_deg","stimulus","response","response_type","key_press","avg_frame_time","center_x","center_y","correct_response","illusion"
"true","false","[]","[]","[]","preload","0","287","0.0-0.0","254036","","","","","","","","","","","","","","","","","","","",""
"","","","","","instructions","1","38841","0.0-1.0","254036","[{""page_index"":0,""viewing_time"":16073},{""page_index"":1,""viewing_time"":7976},{""page_index"":2,""viewing_time"":14500}]","38551","","","","","","","","","","","","","","","","","",""
"true","","","","","fullscreen","2","44387","0.0-2.0","254036","","","","","","","","","","","","","","","","","","","",""
"","","","","","virtual-chinrest","3","173183","0.0-3.0","254036","","128786","85.6","53.98","390","4.56","1360.73","3.6031411674703975","108.23888986669967","12.56479996861472","7.095416452864782","","","","","","","","",""
"","","","","","html-keyboard-response","4","175227","0.0-4.0","254036","","2039","","","","","","","","","","This is just trial run, press Space bar to continue"," ","","","","","","",""
"","","","","","psychophysics","5","185235","0.0-5.0-0.0","254036","","9991","","","","","","","","","","","2","key","2","16.648114808652235","680","250","0","NO"
"","","","","","psychophysics","6","186958","0.0-5.0-1.0","254036","","1719","","","","","","","","","","","2","key","2","16.647873786407764","680","250","1","YES"
"","","","","","psychophysics","7","189581","0.0-5.0-2.0","254036","","2619","","","","","","","","","","","2","key","2","16.65026282051277","680","250","1","No"
"","","","","","psychophysics","8","192049","0.0-5.0-3.0","254036","","2465","","","","","","","","","","","2","key","2","16.653476190476102","680","250","1","No"
"","","","","","psychophysics","9","197447","0.0-5.0-4.0","254036","","5391","","","","","","","","","","","2","key","2","16.6510340557276","680","250","1","NO"
"","","","","","psychophysics","10","199926","0.0-5.0-5.0","254036","","2474","","","","","","","","","","","1","key","1","16.651736486486453","680","250","1","NO"
"","","","","","psychophysics","11","206014","0.0-5.0-6.0","254036","","6080","","","","","","","","","","","1","key","1","16.650534246575283","680","250","1","YES"
"","","","","","psychophysics","12","208373","0.0-5.0-7.0","254036","","2354","","","","","","","","","","","2","key","2","16.652347517730494","680","250","0","NO"
"","","","","","html-keyboard-response","13","215189","0.0-6.0","254036","","6815","","","","","","","","","","You have successfully completed the pilot , Press Space bar to continue to main block of experiment"," ","","","","","","",""
"","","","","","psychophysics","14","216922","0.0-7.0-0.0","254036","","1726","","","","","","","","","","","2","key","2","16.635394230769286","680","250","0","NO"
"","","","","","html-keyboard-response","15","224803","0.0-7.0-1.0","254036","","7879","","","","","","","","","","
    <p>How confident are you in your response? Press the corresponding keys from 1 to 5 based on your experience</p>
    <ul id=""confidence-levels"">
      <li id=""conf-1"">1: Not at all confident</li>
      <li id=""conf-2"">2: Slightly confident</li>
      <li id=""conf-3"">3: Somewhat confident</li>
      <li id=""conf-4"">4: Very confident</li>
      <li id=""conf-5"">5: Completely confident</li>
    </ul>","4","","","","","","",""
"","","","","","psychophysics","16","227106","0.0-7.0-2.0","254036","","2294","","","","","","","","","","","2","key","2","16.742485507246297","680","250","1","YES"
"","","","","","html-keyboard-response","17","231516","0.0-7.0-3.0","254036","","4409","","","","","","","","","","
    <p>How confident are you in your response? Press the corresponding keys from 1 to 5 based on your experience</p>
    <ul id=""confidence-levels"">
      <li id=""conf-1"">1: Not at all confident</li>
      <li id=""conf-2"">2: Slightly confident</li>
      <li id=""conf-3"">3: Somewhat confident</li>
      <li id=""conf-4"">4: Very confident</li>
      <li id=""conf-5"">5: Completely confident</li>
    </ul>","4","","","","","","",""
"","","","","","psychophysics","18","236460","0.0-7.0-4.0","254036","","4939","","","","","","","","","","","2","key","2","16.643925925925874","680","250","1","NO"
"","","","","","html-keyboard-response","19","241351","0.0-7.0-5.0","254036","","4890","","","","","","","","","","
    <p>How confident are you in your response? Press the corresponding keys from 1 to 5 based on your experience</p>
    <ul id=""confidence-levels"">
      <li id=""conf-1"">1: Not at all confident</li>
      <li id=""conf-2"">2: Slightly confident</li>
      <li id=""conf-3"">3: Somewhat confident</li>
      <li id=""conf-4"">4: Very confident</li>
      <li id=""conf-5"">5: Completely confident</li>
    </ul>","3","","","","","","",""
"","","","","","psychophysics","20","244031","0.0-7.0-6.0","254036","","2673","","","","","","","","","","","2","key","2","16.629267080745375","680","250","0","NO"
"","","","","","html-keyboard-response","21","275548","0.0-7.0-7.0","254036","","31517","","","","","","","","","","
    <p>How confident are you in your response? Press the corresponding keys from 1 to 5 based on your experience</p>
    <ul id=""confidence-levels"">
      <li id=""conf-1"">1: Not at all confident</li>
      <li id=""conf-2"">2: Slightly confident</li>
      <li id=""conf-3"">3: Somewhat confident</li>
      <li id=""conf-4"">4: Very confident</li>
      <li id=""conf-5"">5: Completely confident</li>
    </ul>","4","","","","","","",""
"","","","","","psychophysics","22","277806","0.0-7.0-8.0","254036","","2251","","","","","","","","","","","2","key","2","16.618985294117437","680","250","1","No"
"","","","","","html-keyboard-response","23","283392","0.0-7.0-9.0","254036","","5585","","","","","","","","","","
    <p>How confident are you in your response? Press the corresponding keys from 1 to 5 based on your experience</p>
    <ul id=""confidence-levels"">
      <li id=""conf-1"">1: Not at all confident</li>
      <li id=""conf-2"">2: Slightly confident</li>
      <li id=""conf-3"">3: Somewhat confident</li>
      <li id=""conf-4"">4: Very confident</li>
      <li id=""conf-5"">5: Completely confident</li>
    </ul>","3","","","","","","",""
"","","","","","psychophysics","24","285420","0.0-7.0-10.0","254036","","2023","","","","","","","","","","","2","key","2","16.630631147541266","680","250","1","NO"
"","","","","","html-keyboard-response","25","287873","0.0-7.0-11.0","254036","","2452","","","","","","","","","","
    <p>How confident are you in your response? Press the corresponding keys from 1 to 5 based on your experience</p>
    <ul id=""confidence-levels"">
      <li id=""conf-1"">1: Not at all confident</li>
      <li id=""conf-2"">2: Slightly confident</li>
      <li id=""conf-3"">3: Somewhat confident</li>
      <li id=""conf-4"">4: Very confident</li>
      <li id=""conf-5"">5: Completely confident</li>
    </ul>","4","","","","","","",""
"","","","","","psychophysics","26","290401","0.0-7.0-12.0","254036","","2521","","","","","","","","","","","2","key","2","16.749980132450546","680","250","0","NO"
"","","","","","html-keyboard-response","27","293104","0.0-7.0-13.0","254036","","2701","","","","","","","","","","
    <p>How confident are you in your response? Press the corresponding keys from 1 to 5 based on your experience</p>
    <ul id=""confidence-levels"">
      <li id=""conf-1"">1: Not at all confident</li>
      <li id=""conf-2"">2: Slightly confident</li>
      <li id=""conf-3"">3: Somewhat confident</li>
      <li id=""conf-4"">4: Very confident</li>
      <li id=""conf-5"">5: Completely confident</li>
    </ul>","2","","","","","","",""
"","","","","","psychophysics","28","294374","0.0-7.0-14.0","254036","","1261","","","","","","","","","","","2","key","2","16.639460526315624","680","250","0","NO"
"","","","","","html-keyboard-response","29","296139","0.0-7.0-15.0","254036","","1764","","","","","","","","","","
    <p>How confident are you in your response? Press the corresponding keys from 1 to 5 based on your experience</p>
    <ul id=""confidence-levels"">
      <li id=""conf-1"">1: Not at all confident</li>
      <li id=""conf-2"">2: Slightly confident</li>
      <li id=""conf-3"">3: Somewhat confident</li>
      <li id=""conf-4"">4: Very confident</li>
      <li id=""conf-5"">5: Completely confident</li>
    </ul>","4","","","","","","",""
"","","","","","psychophysics","30","298416","0.0-7.0-16.0","254036","","2272","","","","","","","","","","","2","key","2","16.649700729927154","680","250","0","NO"
"","","","","","html-keyboard-response","31","301184","0.0-7.0-17.0","254036","","2767","","","","","","","","","","
    <p>How confident are you in your response? Press the corresponding keys from 1 to 5 based on your experience</p>
    <ul id=""confidence-levels"">
      <li id=""conf-1"">1: Not at all confident</li>
      <li id=""conf-2"">2: Slightly confident</li>
      <li id=""conf-3"">3: Somewhat confident</li>
      <li id=""conf-4"">4: Very confident</li>
      <li id=""conf-5"">5: Completely confident</li>
    </ul>","5","","","","","","",""
"","","","","","psychophysics","32","302921","0.0-7.0-18.0","254036","","1729","","","","","","","","","","","2","key","2","16.64448076923089","680","250","1","YES"
"","","","","","html-keyboard-response","33","304206","0.0-7.0-19.0","254036","","1283","","","","","","","","","","
    <p>How confident are you in your response? Press the corresponding keys from 1 to 5 based on your experience</p>
    <ul id=""confidence-levels"">
      <li id=""conf-1"">1: Not at all confident</li>
      <li id=""conf-2"">2: Slightly confident</li>
      <li id=""conf-3"">3: Somewhat confident</li>
      <li id=""conf-4"">4: Very confident</li>
      <li id=""conf-5"">5: Completely confident</li>
    </ul>","5","","","","","","",""
"","","","","","psychophysics","34","305826","0.0-7.0-20.0","254036","","1614","","","","","","","","","","","2","key","2","16.812113402061495","680","250","0","NO"
"","","","","","html-keyboard-response","35","307605","0.0-7.0-21.0","254036","","1778","","","","","","","","","","
    <p>How confident are you in your response? Press the corresponding keys from 1 to 5 based on your experience</p>
    <ul id=""confidence-levels"">
      <li id=""conf-1"">1: Not at all confident</li>
      <li id=""conf-2"">2: Slightly confident</li>
      <li id=""conf-3"">3: Somewhat confident</li>
      <li id=""conf-4"">4: Very confident</li>
      <li id=""conf-5"">5: Completely confident</li>
    </ul>","5","","","","","","",""
"","","","","","psychophysics","36","308915","0.0-7.0-22.0","254036","","1303","","","","","","","","","","","2","key","2","16.650538461538815","680","250","1","YES"
"","","","","","html-keyboard-response","37","310336","0.0-7.0-23.0","254036","","1420","","","","","","","","","","
    <p>How confident are you in your response? Press the corresponding keys from 1 to 5 based on your experience</p>
    <ul id=""confidence-levels"">
      <li id=""conf-1"">1: Not at all confident</li>
      <li id=""conf-2"">2: Slightly confident</li>
      <li id=""conf-3"">3: Somewhat confident</li>
      <li id=""conf-4"">4: Very confident</li>
      <li id=""conf-5"">5: Completely confident</li>
    </ul>","5","","","","","","",""
"","","","","","psychophysics","38","311723","0.0-7.0-24.0","254036","","1369","","","","","","","","","","","2","key","2","16.638506024096202","680","250","1","YES"
"","","","","","html-keyboard-response","39","313707","0.0-7.0-25.0","254036","","1982","","","","","","","","","","
    <p>How confident are you in your response? Press the corresponding keys from 1 to 5 based on your experience</p>
    <ul id=""confidence-levels"">
      <li id=""conf-1"">1: Not at all confident</li>
      <li id=""conf-2"">2: Slightly confident</li>
      <li id=""conf-3"">3: Somewhat confident</li>
      <li id=""conf-4"">4: Very confident</li>
      <li id=""conf-5"">5: Completely confident</li>
    </ul>","5","","","","","","",""
"","","","","","psychophysics","40","315092","0.0-7.0-26.0","254036","","1380","","","","","","","","","","","2","key","2","16.652662650602785","680","250","1","NO"
"","","","","","html-keyboard-response","41","315667","0.0-7.0-27.0","254036","","573","","","","","","","","","","
    <p>How confident are you in your response? Press the corresponding keys from 1 to 5 based on your experience</p>
    <ul id=""confidence-levels"">
      <li id=""conf-1"">1: Not at all confident</li>
      <li id=""conf-2"">2: Slightly confident</li>
      <li id=""conf-3"">3: Somewhat confident</li>
      <li id=""conf-4"">4: Very confident</li>
      <li id=""conf-5"">5: Completely confident</li>
    </ul>","5","","","","","","",""
"","","","","","psychophysics","42","316454","0.0-7.0-28.0","254036","","783","","","","","","","","","","","2","key","2","16.64212765957432","680","250","1","NO"
"","","","","","html-keyboard-response","43","317118","0.0-7.0-29.0","254036","","662","","","","","","","","","","
    <p>How confident are you in your response? Press the corresponding keys from 1 to 5 based on your experience</p>
    <ul id=""confidence-levels"">
      <li id=""conf-1"">1: Not at all confident</li>
      <li id=""conf-2"">2: Slightly confident</li>
      <li id=""conf-3"">3: Somewhat confident</li>
      <li id=""conf-4"">4: Very confident</li>
      <li id=""conf-5"">5: Completely confident</li>
    </ul>","5","","","","","","",""
"","","","","","psychophysics","44","318333","0.0-7.0-30.0","254036","","1208","","","","","","","","","","","2","key","2","16.645000000000287","680","250","0","NO"
"","","","","","html-keyboard-response","45","318981","0.0-7.0-31.0","254036","","647","","","","","","","","","","
    <p>How confident are you in your response? Press the corresponding keys from 1 to 5 based on your experience</p>
    <ul id=""confidence-levels"">
      <li id=""conf-1"">1: Not at all confident</li>
      <li id=""conf-2"">2: Slightly confident</li>
      <li id=""conf-3"">3: Somewhat confident</li>
      <li id=""conf-4"">4: Very confident</li>
      <li id=""conf-5"">5: Completely confident</li>
    </ul>","5","","","","","","",""
"","","","","","psychophysics","46","322875","0.0-7.0-32.0","254036","","3889","","","","","","","","","","","0","key","0","16.648299145299102","680","250","0","NO"
"","","","","","html-keyboard-response","47","324777","0.0-7.0-33.0","254036","","1901","","","","","","","","","","
    <p>How confident are you in your response? Press the corresponding keys from 1 to 5 based on your experience</p>
    <ul id=""confidence-levels"">
      <li id=""conf-1"">1: Not at all confident</li>
      <li id=""conf-2"">2: Slightly confident</li>
      <li id=""conf-3"">3: Somewhat confident</li>
      <li id=""conf-4"">4: Very confident</li>
      <li id=""conf-5"">5: Completely confident</li>
    </ul>","2","","","","","","",""
"","","","","","psychophysics","48","326063","0.0-7.0-34.0","254036","","1280","","","","","","","","","","","0","key","0","16.6374935064935","680","250","1","No"
"","","","","","html-keyboard-response","49","326616","0.0-7.0-35.0","254036","","552","","","","","","","","","","
    <p>How confident are you in your response? Press the corresponding keys from 1 to 5 based on your experience</p>
    <ul id=""confidence-levels"">
      <li id=""conf-1"">1: Not at all confident</li>
      <li id=""conf-2"">2: Slightly confident</li>
      <li id=""conf-3"">3: Somewhat confident</li>
      <li id=""conf-4"">4: Very confident</li>
      <li id=""conf-5"">5: Completely confident</li>
    </ul>","2","","","","","","",""
"","","","","","psychophysics","50","328085","0.0-7.0-36.0","254036","","1464","","","","","","","","","","","1","key","1","16.647067415730746","680","250","1","NO"
"","","","","","html-keyboard-response","51","330137","0.0-7.0-37.0","254036","","2050","","","","","","","","","","
    <p>How confident are you in your response? Press the corresponding keys from 1 to 5 based on your experience</p>
    <ul id=""confidence-levels"">
      <li id=""conf-1"">1: Not at all confident</li>
      <li id=""conf-2"">2: Slightly confident</li>
      <li id=""conf-3"">3: Somewhat confident</li>
      <li id=""conf-4"">4: Very confident</li>
      <li id=""conf-5"">5: Completely confident</li>
    </ul>","1","","","","","","",""
"","","","","","psychophysics","52","331243","0.0-7.0-38.0","254036","","1099","","","","","","","","","","","2","key","2","16.634969696969634","680","250","0","NO"
"","","","","","html-keyboard-response","53","331701","0.0-7.0-39.0","254036","","457","","","","","","","","","","
    <p>How confident are you in your response? Press the corresponding keys from 1 to 5 based on your experience</p>
    <ul id=""confidence-levels"">
      <li id=""conf-1"">1: Not at all confident</li>
      <li id=""conf-2"">2: Slightly confident</li>
      <li id=""conf-3"">3: Somewhat confident</li>
      <li id=""conf-4"">4: Very confident</li>
      <li id=""conf-5"">5: Completely confident</li>
    </ul>","2","","","","","","",""
"","","","","","psychophysics","54","332915","0.0-7.0-40.0","254036","","1209","","","","","","","","","","","2","key","2","16.645589041096247","680","250","1","NO"
"","","","","","html-keyboard-response","55","333548","0.0-7.0-41.0","254036","","632","","","","","","","","","","
    <p>How confident are you in your response? Press the corresponding keys from 1 to 5 based on your experience</p>
    <ul id=""confidence-levels"">
      <li id=""conf-1"">1: Not at all confident</li>
      <li id=""conf-2"">2: Slightly confident</li>
      <li id=""conf-3"">3: Somewhat confident</li>
      <li id=""conf-4"">4: Very confident</li>
      <li id=""conf-5"">5: Completely confident</li>
    </ul>","2","","","","","","",""
"","","","","","psychophysics","56","339875","0.0-7.0-42.0","254036","","6319","","","","","","","","","","","2","key","2","16.650957894736845","680","250","1","No"
"","","","","","html-keyboard-response","57","342710","0.0-7.0-43.0","254036","","2833","","","","","","","","","","
    <p>How confident are you in your response? Press the corresponding keys from 1 to 5 based on your experience</p>
    <ul id=""confidence-levels"">
      <li id=""conf-1"">1: Not at all confident</li>
      <li id=""conf-2"">2: Slightly confident</li>
      <li id=""conf-3"">3: Somewhat confident</li>
      <li id=""conf-4"">4: Very confident</li>
      <li id=""conf-5"">5: Completely confident</li>
    </ul>","4","","","","","","",""
"","","","","","psychophysics","58","344242","0.0-7.0-44.0","254036","","1525","","","","","","","","","","","2","key","2","16.62994565217409","680","250","0","NO"
"","","","","","html-keyboard-response","59","345583","0.0-7.0-45.0","254036","","1340","","","","","","","","","","
    <p>How confident are you in your response? Press the corresponding keys from 1 to 5 based on your experience</p>
    <ul id=""confidence-levels"">
      <li id=""conf-1"">1: Not at all confident</li>
      <li id=""conf-2"">2: Slightly confident</li>
      <li id=""conf-3"">3: Somewhat confident</li>
      <li id=""conf-4"">4: Very confident</li>
      <li id=""conf-5"">5: Completely confident</li>
    </ul>","5","","","","","","",""
"","","","","","psychophysics","60","346865","0.0-7.0-46.0","254036","","1276","","","","","","","","","","","2","key","2","16.86082894736855","680","250","1","No"
"","","","","","html-keyboard-response","61","347812","0.0-7.0-47.0","254036","","945","","","","","","","","","","
    <p>How confident are you in your response? Press the corresponding keys from 1 to 5 based on your experience</p>
    <ul id=""confidence-levels"">
      <li id=""conf-1"">1: Not at all confident</li>
      <li id=""conf-2"">2: Slightly confident</li>
      <li id=""conf-3"">3: Somewhat confident</li>
      <li id=""conf-4"">4: Very confident</li>
      <li id=""conf-5"">5: Completely confident</li>
    </ul>","4","","","","","","",""
"","","","","","psychophysics","62","350964","0.0-7.0-48.0","254036","","3146","","","","","","","","","","","2","key","2","16.647315789473634","680","250","1","No"
"","","","","","html-keyboard-response","63","352036","0.0-7.0-49.0","254036","","1070","","","","","","","","","","
    <p>How confident are you in your response? Press the corresponding keys from 1 to 5 based on your experience</p>
    <ul id=""confidence-levels"">
      <li id=""conf-1"">1: Not at all confident</li>
      <li id=""conf-2"">2: Slightly confident</li>
      <li id=""conf-3"">3: Somewhat confident</li>
      <li id=""conf-4"">4: Very confident</li>
      <li id=""conf-5"">5: Completely confident</li>
    </ul>","2","","","","","","",""
"","","","","","psychophysics","64","352957","0.0-7.0-50.0","254036","","913","","","","","","","","","","","2","key","2","16.648836363637184","680","250","1","YES"
"","","","","","html-keyboard-response","65","353742","0.0-7.0-51.0","254036","","785","","","","","","","","","","
    <p>How confident are you in your response? Press the corresponding keys from 1 to 5 based on your experience</p>
    <ul id=""confidence-levels"">
      <li id=""conf-1"">1: Not at all confident</li>
      <li id=""conf-2"">2: Slightly confident</li>
      <li id=""conf-3"">3: Somewhat confident</li>
      <li id=""conf-4"">4: Very confident</li>
      <li id=""conf-5"">5: Completely confident</li>
    </ul>","2","","","","","","",""
"","","","","","psychophysics","66","355361","0.0-7.0-52.0","254036","","1615","","","","","","","","","","","2","key","2","16.64556701030923","680","250","1","No"
"","","","","","html-keyboard-response","67","355950","0.0-7.0-53.0","254036","","587","","","","","","","","","","
    <p>How confident are you in your response? Press the corresponding keys from 1 to 5 based on your experience</p>
    <ul id=""confidence-levels"">
      <li id=""conf-1"">1: Not at all confident</li>
      <li id=""conf-2"">2: Slightly confident</li>
      <li id=""conf-3"">3: Somewhat confident</li>
      <li id=""conf-4"">4: Very confident</li>
      <li id=""conf-5"">5: Completely confident</li>
    </ul>","2","","","","","","",""
"","","","","","psychophysics","68","357012","0.0-7.0-54.0","254036","","1052","","","","","","","","","","","2","key","2","16.6454375000003","680","250","1","YES"
"","","","","","html-keyboard-response","69","358800","0.0-7.0-55.0","254036","","1787","","","","","","","","","","
    <p>How confident are you in your response? Press the corresponding keys from 1 to 5 based on your experience</p>
    <ul id=""confidence-levels"">
      <li id=""conf-1"">1: Not at all confident</li>
      <li id=""conf-2"">2: Slightly confident</li>
      <li id=""conf-3"">3: Somewhat confident</li>
      <li id=""conf-4"">4: Very confident</li>
      <li id=""conf-5"">5: Completely confident</li>
    </ul>","3","","","","","","",""
"","","","","","psychophysics","70","359761","0.0-7.0-56.0","254036","","956","","","","","","","","","","","2","key","2","16.631689655173023","680","250","1","No"
"","","","","","html-keyboard-response","71","361317","0.0-7.0-57.0","254036","","1554","","","","","","","","","","
    <p>How confident are you in your response? Press the corresponding keys from 1 to 5 based on your experience</p>
    <ul id=""confidence-levels"">
      <li id=""conf-1"">1: Not at all confident</li>
      <li id=""conf-2"">2: Slightly confident</li>
      <li id=""conf-3"">3: Somewhat confident</li>
      <li id=""conf-4"">4: Very confident</li>
      <li id=""conf-5"">5: Completely confident</li>
    </ul>","4","","","","","","",""
"","","","","","psychophysics","72","362141","0.0-7.0-58.0","254036","","819","","","","","","","","","","","2","key","2","16.96471428571326","680","250","1","No"
"","","","","","html-keyboard-response","73","362936","0.0-7.0-59.0","254036","","794","","","","","","","","","","
    <p>How confident are you in your response? Press the corresponding keys from 1 to 5 based on your experience</p>
    <ul id=""confidence-levels"">
      <li id=""conf-1"">1: Not at all confident</li>
      <li id=""conf-2"">2: Slightly confident</li>
      <li id=""conf-3"">3: Somewhat confident</li>
      <li id=""conf-4"">4: Very confident</li>
      <li id=""conf-5"">5: Completely confident</li>
    </ul>","3","","","","","","",""
"","","","","","psychophysics","74","363846","0.0-7.0-60.0","254036","","904","","","","","","","","","","","2","key","2","16.63872222222185","680","250","1","YES"
"","","","","","html-keyboard-response","75","364985","0.0-7.0-61.0","254036","","1139","","","","","","","","","","
    <p>How confident are you in your response? Press the corresponding keys from 1 to 5 based on your experience</p>
    <ul id=""confidence-levels"">
      <li id=""conf-1"">1: Not at all confident</li>
      <li id=""conf-2"">2: Slightly confident</li>
      <li id=""conf-3"">3: Somewhat confident</li>
      <li id=""conf-4"">4: Very confident</li>
      <li id=""conf-5"">5: Completely confident</li>
    </ul>","3","","","","","","",""
"","","","","","psychophysics","76","366011","0.0-7.0-62.0","254036","","1021","","","","","","","","","","","2","key","2","16.638918032787632","680","250","1","NO"
"","","","","","html-keyboard-response","77","366643","0.0-7.0-63.0","254036","","631","","","","","","","","","","
    <p>How confident are you in your response? Press the corresponding keys from 1 to 5 based on your experience</p>
    <ul id=""confidence-levels"">
      <li id=""conf-1"">1: Not at all confident</li>
      <li id=""conf-2"">2: Slightly confident</li>
      <li id=""conf-3"">3: Somewhat confident</li>
      <li id=""conf-4"">4: Very confident</li>
      <li id=""conf-5"">5: Completely confident</li>
    </ul>","4","","","","","","",""
"","","","","","psychophysics","78","368165","0.0-7.0-64.0","254036","","1516","","","","","","","","","","","2","key","2","16.649576086956507","680","250","1","NO"
"","","","","","html-keyboard-response","79","370264","0.0-7.0-65.0","254036","","2098","","","","","","","","","","
    <p>How confident are you in your response? Press the corresponding keys from 1 to 5 based on your experience</p>
    <ul id=""confidence-levels"">
      <li id=""conf-1"">1: Not at all confident</li>
      <li id=""conf-2"">2: Slightly confident</li>
      <li id=""conf-3"">3: Somewhat confident</li>
      <li id=""conf-4"">4: Very confident</li>
      <li id=""conf-5"">5: Completely confident</li>
    </ul>","5","","","","","","",""
"","","","","","psychophysics","80","371495","0.0-7.0-66.0","254036","","1222","","","","","","","","","","","2","key","2","16.631621621621495","680","250","1","No"
"","","","","","html-keyboard-response","81","372679","0.0-7.0-67.0","254036","","1183","","","","","","","","","","
    <p>How confident are you in your response? Press the corresponding keys from 1 to 5 based on your experience</p>
    <ul id=""confidence-levels"">
      <li id=""conf-1"">1: Not at all confident</li>
      <li id=""conf-2"">2: Slightly confident</li>
      <li id=""conf-3"">3: Somewhat confident</li>
      <li id=""conf-4"">4: Very confident</li>
      <li id=""conf-5"">5: Completely confident</li>
    </ul>","5","","","","","","",""
"","","","","","psychophysics","82","373855","0.0-7.0-68.0","254036","","1170","","","","","","","","","","","2","key","2","16.63807142857113","680","250","1","No"
"","","","","","html-keyboard-response","83","375102","0.0-7.0-69.0","254036","","1246","","","","","","","","","","
    <p>How confident are you in your response? Press the corresponding keys from 1 to 5 based on your experience</p>
    <ul id=""confidence-levels"">
      <li id=""conf-1"">1: Not at all confident</li>
      <li id=""conf-2"">2: Slightly confident</li>
      <li id=""conf-3"">3: Somewhat confident</li>
      <li id=""conf-4"">4: Very confident</li>
      <li id=""conf-5"">5: Completely confident</li>
    </ul>","3","","","","","","",""
"","","","","","psychophysics","84","376305","0.0-7.0-70.0","254036","","1198","","","","","","","","","","","2","key","2","16.637520547945066","680","250","1","NO"
"","","","","","html-keyboard-response","85","377328","0.0-7.0-71.0","254036","","1022","","","","","","","","","","
    <p>How confident are you in your response? Press the corresponding keys from 1 to 5 based on your experience</p>
    <ul id=""confidence-levels"">
      <li id=""conf-1"">1: Not at all confident</li>
      <li id=""conf-2"">2: Slightly confident</li>
      <li id=""conf-3"">3: Somewhat confident</li>
      <li id=""conf-4"">4: Very confident</li>
      <li id=""conf-5"">5: Completely confident</li>
    </ul>","5","","","","","","",""
"","","","","","psychophysics","86","378932","0.0-7.0-72.0","254036","","1594","","","","","","","","","","","2","key","2","16.64651041666669","680","250","1","YES"
"","","","","","html-keyboard-response","87","379678","0.0-7.0-73.0","254036","","744","","","","","","","","","","
    <p>How confident are you in your response? Press the corresponding keys from 1 to 5 based on your experience</p>
    <ul id=""confidence-levels"">
      <li id=""conf-1"">1: Not at all confident</li>
      <li id=""conf-2"">2: Slightly confident</li>
      <li id=""conf-3"">3: Somewhat confident</li>
      <li id=""conf-4"">4: Very confident</li>
      <li id=""conf-5"">5: Completely confident</li>
    </ul>","5","","","","","","",""
"","","","","","psychophysics","88","386085","0.0-7.0-74.0","254036","","6402","","","","","","","","","","","2","key","2","16.648914285714273","680","250","1","YES"
"","","","","","html-keyboard-response","89","389541","0.0-7.0-75.0","254036","","3454","","","","","","","","","","
    <p>How confident are you in your response? Press the corresponding keys from 1 to 5 based on your experience</p>
    <ul id=""confidence-levels"">
      <li id=""conf-1"">1: Not at all confident</li>
      <li id=""conf-2"">2: Slightly confident</li>
      <li id=""conf-3"">3: Somewhat confident</li>
      <li id=""conf-4"">4: Very confident</li>
      <li id=""conf-5"">5: Completely confident</li>
    </ul>","4","","","","","","",""
"","","","","","psychophysics","90","392728","0.0-7.0-76.0","254036","","3185","","","","","","","","","","","0","key","0","16.725837696335127","680","250","1","NO"
"","","","","","html-keyboard-response","91","393955","0.0-7.0-77.0","254036","","1225","","","","","","","","","","
    <p>How confident are you in your response? Press the corresponding keys from 1 to 5 based on your experience</p>
    <ul id=""confidence-levels"">
      <li id=""conf-1"">1: Not at all confident</li>
      <li id=""conf-2"">2: Slightly confident</li>
      <li id=""conf-3"">3: Somewhat confident</li>
      <li id=""conf-4"">4: Very confident</li>
      <li id=""conf-5"">5: Completely confident</li>
    </ul>","4","","","","","","",""
"","","","","","psychophysics","92","399929","0.0-7.0-78.0","254036","","5965","","","","","","","","","","","2","key","2","16.64806983240213","680","250","1","YES"
"","","","","","html-keyboard-response","93","400973","0.0-7.0-79.0","254036","","1042","","","","","","","","","","
    <p>How confident are you in your response? Press the corresponding keys from 1 to 5 based on your experience</p>
    <ul id=""confidence-levels"">
      <li id=""conf-1"">1: Not at all confident</li>
      <li id=""conf-2"">2: Slightly confident</li>
      <li id=""conf-3"">3: Somewhat confident</li>
      <li id=""conf-4"">4: Very confident</li>
      <li id=""conf-5"">5: Completely confident</li>
    </ul>","5","","","","","","",""
"","","","","","html-keyboard-response","94","405667","0.0-8.0","254036","","4693","","","","","","","","","","Your average response time is  null ms You are doing great"," ","","","","","","",""
"","","","","","html-button-response","95","467712","0.0-9.0","254036","","62044","","","","","","","","","","<p>You have successfully completed one block of the experiment. The next part of the experiment can be started in <span id=""clock"">1:00</span> <br>You can take a break for a minute or more if you like and Press continue when you are ready","0","","","","","","",""
"","","","","","psychophysics","96","471957","0.0-10.0-0.0","254036","","4236","","","","","","","","","","","1","key","1","16.65017647058817","680","250","2","YES"
"","","","","","html-keyboard-response","97","473196","0.0-10.0-1.0","254036","","1238","","","","","","","","","","
    <p>How confident are you in your response? Press the corresponding keys from 1 to 5 based on your experience</p>
    <ul id=""confidence-levels"">
      <li id=""conf-1"">1: Not at all confident</li>
      <li id=""conf-2"">2: Slightly confident</li>
      <li id=""conf-3"">3: Somewhat confident</li>
      <li id=""conf-4"">4: Very confident</li>
      <li id=""conf-5"">5: Completely confident</li>
    </ul>","3","","","","","","",""
"","","","","","psychophysics","98","485849","0.0-10.0-2.0","254036","","12644","","","","","","","","","","","2","key","2","16.65011184210529","680","250","2","YES"
"","","","","","html-keyboard-response","99","487343","0.0-10.0-3.0","254036","","1492","","","","","","","","","","
    <p>How confident are you in your response? Press the corresponding keys from 1 to 5 based on your experience</p>
    <ul id=""confidence-levels"">
      <li id=""conf-1"">1: Not at all confident</li>
      <li id=""conf-2"">2: Slightly confident</li>
      <li id=""conf-3"">3: Somewhat confident</li>
      <li id=""conf-4"">4: Very confident</li>
      <li id=""conf-5"">5: Completely confident</li>
    </ul>","3","","","","","","",""
"","","","","","psychophysics","100","489116","0.0-10.0-4.0","254036","","1766","","","","","","","","","","","2","key","2","16.79929245282997","680","250","2","NO"
"","","","","","html-keyboard-response","101","490138","0.0-10.0-5.0","254036","","1021","","","","","","","","","","
    <p>How confident are you in your response? Press the corresponding keys from 1 to 5 based on your experience</p>
    <ul id=""confidence-levels"">
      <li id=""conf-1"">1: Not at all confident</li>
      <li id=""conf-2"">2: Slightly confident</li>
      <li id=""conf-3"">3: Somewhat confident</li>
      <li id=""conf-4"">4: Very confident</li>
      <li id=""conf-5"">5: Completely confident</li>
    </ul>","5","","","","","","",""
"","","","","","psychophysics","102","491644","0.0-10.0-6.0","254036","","1501","","","","","","","","","","","2","key","2","16.641824175824365","680","250","1","YES"
"","","","","","html-keyboard-response","103","492112","0.0-10.0-7.0","254036","","466","","","","","","","","","","
    <p>How confident are you in your response? Press the corresponding keys from 1 to 5 based on your experience</p>
    <ul id=""confidence-levels"">
      <li id=""conf-1"">1: Not at all confident</li>
      <li id=""conf-2"">2: Slightly confident</li>
      <li id=""conf-3"">3: Somewhat confident</li>
      <li id=""conf-4"">4: Very confident</li>
      <li id=""conf-5"">5: Completely confident</li>
    </ul>","5","","","","","","",""
"","","","","","psychophysics","104","493835","0.0-10.0-8.0","254036","","1717","","","","","","","","","","","2","key","2","16.648155339805914","680","250","1","YES"
"","","","","","html-keyboard-response","105","494530","0.0-10.0-9.0","254036","","694","","","","","","","","","","
    <p>How confident are you in your response? Press the corresponding keys from 1 to 5 based on your experience</p>
    <ul id=""confidence-levels"">
      <li id=""conf-1"">1: Not at all confident</li>
      <li id=""conf-2"">2: Slightly confident</li>
      <li id=""conf-3"">3: Somewhat confident</li>
      <li id=""conf-4"">4: Very confident</li>
      <li id=""conf-5"">5: Completely confident</li>
    </ul>","5","","","","","","",""
"","","","","","psychophysics","106","496371","0.0-10.0-10.0","254036","","1825","","","","","","","","","","","2","key","2","16.649198198198082","680","250","2","NO"
"","","","","","html-keyboard-response","107","497267","0.0-10.0-11.0","254036","","894","","","","","","","","","","
    <p>How confident are you in your response? Press the corresponding keys from 1 to 5 based on your experience</p>
    <ul id=""confidence-levels"">
      <li id=""conf-1"">1: Not at all confident</li>
      <li id=""conf-2"">2: Slightly confident</li>
      <li id=""conf-3"">3: Somewhat confident</li>
      <li id=""conf-4"">4: Very confident</li>
      <li id=""conf-5"">5: Completely confident</li>
    </ul>","4","","","","","","",""
"","","","","","psychophysics","108","500005","0.0-10.0-12.0","254036","","2733","","","","","","","","","","","2","key","2","16.749341463414588","680","250","2","NO"
"","","","","","html-keyboard-response","109","500295","0.0-10.0-13.0","254036","","289","","","","","","","","","","
    <p>How confident are you in your response? Press the corresponding keys from 1 to 5 based on your experience</p>
    <ul id=""confidence-levels"">
      <li id=""conf-1"">1: Not at all confident</li>
      <li id=""conf-2"">2: Slightly confident</li>
      <li id=""conf-3"">3: Somewhat confident</li>
      <li id=""conf-4"">4: Very confident</li>
      <li id=""conf-5"">5: Completely confident</li>
    </ul>","4","","","","","","",""
"","","","","","psychophysics","110","502056","0.0-10.0-14.0","254036","","1753","","","","","","","","","","","1","key","1","16.651801886792594","680","250","1","YES"
"","","","","","html-keyboard-response","111","502995","0.0-10.0-15.0","254036","","938","","","","","","","","","","
    <p>How confident are you in your response? Press the corresponding keys from 1 to 5 based on your experience</p>
    <ul id=""confidence-levels"">
      <li id=""conf-1"">1: Not at all confident</li>
      <li id=""conf-2"">2: Slightly confident</li>
      <li id=""conf-3"">3: Somewhat confident</li>
      <li id=""conf-4"">4: Very confident</li>
      <li id=""conf-5"">5: Completely confident</li>
    </ul>","4","","","","","","",""
"","","","","","psychophysics","112","505082","0.0-10.0-16.0","254036","","2082","","","","","","","","","","","0","key","0","16.779039999999572","680","250","2","NO"
"","","","","","html-keyboard-response","113","506247","0.0-10.0-17.0","254036","","1164","","","","","","","","","","
    <p>How confident are you in your response? Press the corresponding keys from 1 to 5 based on your experience</p>
    <ul id=""confidence-levels"">
      <li id=""conf-1"">1: Not at all confident</li>
      <li id=""conf-2"">2: Slightly confident</li>
      <li id=""conf-3"">3: Somewhat confident</li>
      <li id=""conf-4"">4: Very confident</li>
      <li id=""conf-5"">5: Completely confident</li>
    </ul>","3","","","","","","",""
"","","","","","psychophysics","114","508564","0.0-10.0-18.0","254036","","2311","","","","","","","","","","","1","key","1","16.65129496402856","680","250","2","YES"
"","","","","","html-keyboard-response","115","510131","0.0-10.0-19.0","254036","","1566","","","","","","","","","","
    <p>How confident are you in your response? Press the corresponding keys from 1 to 5 based on your experience</p>
    <ul id=""confidence-levels"">
      <li id=""conf-1"">1: Not at all confident</li>
      <li id=""conf-2"">2: Slightly confident</li>
      <li id=""conf-3"">3: Somewhat confident</li>
      <li id=""conf-4"">4: Very confident</li>
      <li id=""conf-5"">5: Completely confident</li>
    </ul>","3","","","","","","",""
"","","","","","psychophysics","116","511755","0.0-10.0-20.0","254036","","1614","","","","","","","","","","","2","key","2","16.64845918367346","680","250","1","YES"
"","","","","","html-keyboard-response","117","512830","0.0-10.0-21.0","254036","","1074","","","","","","","","","","
    <p>How confident are you in your response? Press the corresponding keys from 1 to 5 based on your experience</p>
    <ul id=""confidence-levels"">
      <li id=""conf-1"">1: Not at all confident</li>
      <li id=""conf-2"">2: Slightly confident</li>
      <li id=""conf-3"">3: Somewhat confident</li>
      <li id=""conf-4"">4: Very confident</li>
      <li id=""conf-5"">5: Completely confident</li>
    </ul>","4","","","","","","",""
"","","","","","psychophysics","118","515193","0.0-10.0-22.0","254036","","2355","","","","","","","","","","","2","key","2","16.645859154929575","680","250","1","YES"
"","","","","","html-keyboard-response","119","515639","0.0-10.0-23.0","254036","","444","","","","","","","","","","
    <p>How confident are you in your response? Press the corresponding keys from 1 to 5 based on your experience</p>
    <ul id=""confidence-levels"">
      <li id=""conf-1"">1: Not at all confident</li>
      <li id=""conf-2"">2: Slightly confident</li>
      <li id=""conf-3"">3: Somewhat confident</li>
      <li id=""conf-4"">4: Very confident</li>
      <li id=""conf-5"">5: Completely confident</li>
    </ul>","5","","","","","","",""
"","","","","","psychophysics","120","517401","0.0-10.0-24.0","254036","","1755","","","","","","","","","","","2","key","2","16.648613207547417","680","250","1","YES"
"","","","","","html-keyboard-response","121","518293","0.0-10.0-25.0","254036","","891","","","","","","","","","","
    <p>How confident are you in your response? Press the corresponding keys from 1 to 5 based on your experience</p>
    <ul id=""confidence-levels"">
      <li id=""conf-1"">1: Not at all confident</li>
      <li id=""conf-2"">2: Slightly confident</li>
      <li id=""conf-3"">3: Somewhat confident</li>
      <li id=""conf-4"">4: Very confident</li>
      <li id=""conf-5"">5: Completely confident</li>
    </ul>","5","","","","","","",""
"","","","","","psychophysics","122","520412","0.0-10.0-26.0","254036","","2113","","","","","","","","","","","2","key","2","16.644716535433652","680","250","1","YES"
"","","","","","html-keyboard-response","123","523097","0.0-10.0-27.0","254036","","2682","","","","","","","","","","
    <p>How confident are you in your response? Press the corresponding keys from 1 to 5 based on your experience</p>
    <ul id=""confidence-levels"">
      <li id=""conf-1"">1: Not at all confident</li>
      <li id=""conf-2"">2: Slightly confident</li>
      <li id=""conf-3"">3: Somewhat confident</li>
      <li id=""conf-4"">4: Very confident</li>
      <li id=""conf-5"">5: Completely confident</li>
    </ul>","5","","","","","","",""
"","","","","","psychophysics","124","525786","0.0-10.0-28.0","254036","","2682","","","","","","","","","","","1","key","1","16.647204968944532","680","250","1","YES"
"","","","","","html-keyboard-response","125","526811","0.0-10.0-29.0","254036","","1023","","","","","","","","","","
    <p>How confident are you in your response? Press the corresponding keys from 1 to 5 based on your experience</p>
    <ul id=""confidence-levels"">
      <li id=""conf-1"">1: Not at all confident</li>
      <li id=""conf-2"">2: Slightly confident</li>
      <li id=""conf-3"">3: Somewhat confident</li>
      <li id=""conf-4"">4: Very confident</li>
      <li id=""conf-5"">5: Completely confident</li>
    </ul>","5","","","","","","",""
"","","","","","psychophysics","126","529350","0.0-10.0-30.0","254036","","2533","","","","","","","","","","","1","key","1","16.651493421052646","680","250","2","YES"
"","","","","","html-keyboard-response","127","530053","0.0-10.0-31.0","254036","","702","","","","","","","","","","
    <p>How confident are you in your response? Press the corresponding keys from 1 to 5 based on your experience</p>
    <ul id=""confidence-levels"">
      <li id=""conf-1"">1: Not at all confident</li>
      <li id=""conf-2"">2: Slightly confident</li>
      <li id=""conf-3"">3: Somewhat confident</li>
      <li id=""conf-4"">4: Very confident</li>
      <li id=""conf-5"">5: Completely confident</li>
    </ul>","5","","","","","","",""
"","","","","","psychophysics","128","531454","0.0-10.0-32.0","254036","","1394","","","","","","","","","","","2","key","2","16.655678571427764","680","250","1","YES"
"","","","","","html-keyboard-response","129","531795","0.0-10.0-33.0","254036","","339","","","","","","","","","","
    <p>How confident are you in your response? Press the corresponding keys from 1 to 5 based on your experience</p>
    <ul id=""confidence-levels"">
      <li id=""conf-1"">1: Not at all confident</li>
      <li id=""conf-2"">2: Slightly confident</li>
      <li id=""conf-3"">3: Somewhat confident</li>
      <li id=""conf-4"">4: Very confident</li>
      <li id=""conf-5"">5: Completely confident</li>
    </ul>","5","","","","","","",""
"","","","","","psychophysics","130","533073","0.0-10.0-34.0","254036","","1263","","","","","","","","","","","2","key","2","16.646948051948836","680","250","2","NO"
"","","","","","html-keyboard-response","131","533366","0.0-10.0-35.0","254036","","291","","","","","","","","","","
    <p>How confident are you in your response? Press the corresponding keys from 1 to 5 based on your experience</p>
    <ul id=""confidence-levels"">
      <li id=""conf-1"">1: Not at all confident</li>
      <li id=""conf-2"">2: Slightly confident</li>
      <li id=""conf-3"">3: Somewhat confident</li>
      <li id=""conf-4"">4: Very confident</li>
      <li id=""conf-5"">5: Completely confident</li>
    </ul>","5","","","","","","",""
"","","","","","psychophysics","132","534813","0.0-10.0-36.0","254036","","1441","","","","","","","","","","","1","key","1","16.840093023256063","680","250","2","NO"
"","","","","","html-keyboard-response","133","535813","0.0-10.0-37.0","254036","","1000","","","","","","","","","","
    <p>How confident are you in your response? Press the corresponding keys from 1 to 5 based on your experience</p>
    <ul id=""confidence-levels"">
      <li id=""conf-1"">1: Not at all confident</li>
      <li id=""conf-2"">2: Slightly confident</li>
      <li id=""conf-3"">3: Somewhat confident</li>
      <li id=""conf-4"">4: Very confident</li>
      <li id=""conf-5"">5: Completely confident</li>
    </ul>","5","","","","","","",""
"","","","","","psychophysics","134","537489","0.0-10.0-38.0","254036","","1669","","","","","","","","","","","1","key","1","16.65072727272748","680","250","2","YES"
"","","","","","html-keyboard-response","135","538879","0.0-10.0-39.0","254036","","1389","","","","","","","","","","
    <p>How confident are you in your response? Press the corresponding keys from 1 to 5 based on your experience</p>
    <ul id=""confidence-levels"">
      <li id=""conf-1"">1: Not at all confident</li>
      <li id=""conf-2"">2: Slightly confident</li>
      <li id=""conf-3"">3: Somewhat confident</li>
      <li id=""conf-4"">4: Very confident</li>
      <li id=""conf-5"">5: Completely confident</li>
    </ul>","5","","","","","","",""
"","","","","","psychophysics","136","541136","0.0-10.0-40.0","254036","","2253","","","","","","","","","","","0","key","0","16.651222222221637","680","250","2","YES"
"","","","","","html-keyboard-response","137","542110","0.0-10.0-41.0","254036","","972","","","","","","","","","","
    <p>How confident are you in your response? Press the corresponding keys from 1 to 5 based on your experience</p>
    <ul id=""confidence-levels"">
      <li id=""conf-1"">1: Not at all confident</li>
      <li id=""conf-2"">2: Slightly confident</li>
      <li id=""conf-3"">3: Somewhat confident</li>
      <li id=""conf-4"">4: Very confident</li>
      <li id=""conf-5"">5: Completely confident</li>
    </ul>","4","","","","","","",""
"","","","","","psychophysics","138","543817","0.0-10.0-42.0","254036","","1700","","","","","","","","","","","2","key","2","16.6509705882362","680","250","1","YES"
"","","","","","html-keyboard-response","139","544365","0.0-10.0-43.0","254036","","547","","","","","","","","","","
    <p>How confident are you in your response? Press the corresponding keys from 1 to 5 based on your experience</p>
    <ul id=""confidence-levels"">
      <li id=""conf-1"">1: Not at all confident</li>
      <li id=""conf-2"">2: Slightly confident</li>
      <li id=""conf-3"">3: Somewhat confident</li>
      <li id=""conf-4"">4: Very confident</li>
      <li id=""conf-5"">5: Completely confident</li>
    </ul>","5","","","","","","",""
"","","","","","psychophysics","140","545949","0.0-10.0-44.0","254036","","1580","","","","","","","","","","","1","key","1","16.64847368421033","680","250","2","YES"
"","","","","","html-keyboard-response","141","547127","0.0-10.0-45.0","254036","","1177","","","","","","","","","","
    <p>How confident are you in your response? Press the corresponding keys from 1 to 5 based on your experience</p>
    <ul id=""confidence-levels"">
      <li id=""conf-1"">1: Not at all confident</li>
      <li id=""conf-2"">2: Slightly confident</li>
      <li id=""conf-3"">3: Somewhat confident</li>
      <li id=""conf-4"">4: Very confident</li>
      <li id=""conf-5"">5: Completely confident</li>
    </ul>","4","","","","","","",""
"","","","","","psychophysics","142","548580","0.0-10.0-46.0","254036","","1446","","","","","","","","","","","1","key","1","16.64206896551708","680","250","2","YES"
"","","","","","html-keyboard-response","143","548885","0.0-10.0-47.0","254036","","304","","","","","","","","","","
    <p>How confident are you in your response? Press the corresponding keys from 1 to 5 based on your experience</p>
    <ul id=""confidence-levels"">
      <li id=""conf-1"">1: Not at all confident</li>
      <li id=""conf-2"">2: Slightly confident</li>
      <li id=""conf-3"">3: Somewhat confident</li>
      <li id=""conf-4"">4: Very confident</li>
      <li id=""conf-5"">5: Completely confident</li>
    </ul>","4","","","","","","",""
"","","","","","psychophysics","144","550223","0.0-10.0-48.0","254036","","1333","","","","","","","","","","","2","key","2","16.646725000000153","680","250","2","NO"
"","","","","","html-keyboard-response","145","550419","0.0-10.0-49.0","254036","","195","","","","","","","","","","
    <p>How confident are you in your response? Press the corresponding keys from 1 to 5 based on your experience</p>
    <ul id=""confidence-levels"">
      <li id=""conf-1"">1: Not at all confident</li>
      <li id=""conf-2"">2: Slightly confident</li>
      <li id=""conf-3"">3: Somewhat confident</li>
      <li id=""conf-4"">4: Very confident</li>
      <li id=""conf-5"">5: Completely confident</li>
    </ul>","4","","","","","","",""
"","","","","","psychophysics","146","551580","0.0-10.0-50.0","254036","","1158","","","","","","","","","","","2","key","2","16.650217391304214","680","250","1","YES"
"","","","","","html-keyboard-response","147","551765","0.0-10.0-51.0","254036","","184","","","","","","","","","","
    <p>How confident are you in your response? Press the corresponding keys from 1 to 5 based on your experience</p>
    <ul id=""confidence-levels"">
      <li id=""conf-1"">1: Not at all confident</li>
      <li id=""conf-2"">2: Slightly confident</li>
      <li id=""conf-3"">3: Somewhat confident</li>
      <li id=""conf-4"">4: Very confident</li>
      <li id=""conf-5"">5: Completely confident</li>
    </ul>","4","","","","","","",""
"","","","","","psychophysics","148","553151","0.0-10.0-52.0","254036","","1381","","","","","","","","","","","1","key","1","16.65004819277141","680","250","2","YES"
"","","","","","html-keyboard-response","149","553382","0.0-10.0-53.0","254036","","229","","","","","","","","","","
    <p>How confident are you in your response? Press the corresponding keys from 1 to 5 based on your experience</p>
    <ul id=""confidence-levels"">
      <li id=""conf-1"">1: Not at all confident</li>
      <li id=""conf-2"">2: Slightly confident</li>
      <li id=""conf-3"">3: Somewhat confident</li>
      <li id=""conf-4"">4: Very confident</li>
      <li id=""conf-5"">5: Completely confident</li>
    </ul>","4","","","","","","",""
"","","","","","psychophysics","150","554785","0.0-10.0-54.0","254036","","1398","","","","","","","","","","","2","key","2","16.648488095238072","680","250","2","NO"
"","","","","","html-keyboard-response","151","554955","0.0-10.0-55.0","254036","","169","","","","","","","","","","
    <p>How confident are you in your response? Press the corresponding keys from 1 to 5 based on your experience</p>
    <ul id=""confidence-levels"">
      <li id=""conf-1"">1: Not at all confident</li>
      <li id=""conf-2"">2: Slightly confident</li>
      <li id=""conf-3"">3: Somewhat confident</li>
      <li id=""conf-4"">4: Very confident</li>
      <li id=""conf-5"">5: Completely confident</li>
    </ul>","4","","","","","","",""
"","","","","","psychophysics","152","556282","0.0-10.0-56.0","254036","","1322","","","","","","","","","","","2","key","2","16.65116249999992","680","250","1","YES"
"","","","","","html-keyboard-response","153","556426","0.0-10.0-57.0","254036","","143","","","","","","","","","","
    <p>How confident are you in your response? Press the corresponding keys from 1 to 5 based on your experience</p>
    <ul id=""confidence-levels"">
      <li id=""conf-1"">1: Not at all confident</li>
      <li id=""conf-2"">2: Slightly confident</li>
      <li id=""conf-3"">3: Somewhat confident</li>
      <li id=""conf-4"">4: Very confident</li>
      <li id=""conf-5"">5: Completely confident</li>
    </ul>","4","","","","","","",""
"","","","","","psychophysics","154","557671","0.0-10.0-58.0","254036","","1240","","","","","","","","","","","2","key","2","16.87529729729726","680","250","2","NO"
"","","","","","html-keyboard-response","155","557903","0.0-10.0-59.0","254036","","231","","","","","","","","","","
    <p>How confident are you in your response? Press the corresponding keys from 1 to 5 based on your experience</p>
    <ul id=""confidence-levels"">
      <li id=""conf-1"">1: Not at all confident</li>
      <li id=""conf-2"">2: Slightly confident</li>
      <li id=""conf-3"">3: Somewhat confident</li>
      <li id=""conf-4"">4: Very confident</li>
      <li id=""conf-5"">5: Completely confident</li>
    </ul>","5","","","","","","",""
"","","","","","psychophysics","156","559129","0.0-10.0-60.0","254036","","1211","","","","","","","","","","","1","key","1","16.650567567567467","680","250","2","YES"
"","","","","","html-keyboard-response","157","559585","0.0-10.0-61.0","254036","","455","","","","","","","","","","
    <p>How confident are you in your response? Press the corresponding keys from 1 to 5 based on your experience</p>
    <ul id=""confidence-levels"">
      <li id=""conf-1"">1: Not at all confident</li>
      <li id=""conf-2"">2: Slightly confident</li>
      <li id=""conf-3"">3: Somewhat confident</li>
      <li id=""conf-4"">4: Very confident</li>
      <li id=""conf-5"">5: Completely confident</li>
    </ul>","5","","","","","","",""
"","","","","","psychophysics","158","560791","0.0-10.0-62.0","254036","","1199","","","","","","","","","","","2","key","2","16.643874999999145","680","250","2","NO"
"","","","","","html-keyboard-response","159","561043","0.0-10.0-63.0","254036","","250","","","","","","","","","","
    <p>How confident are you in your response? Press the corresponding keys from 1 to 5 based on your experience</p>
    <ul id=""confidence-levels"">
      <li id=""conf-1"">1: Not at all confident</li>
      <li id=""conf-2"">2: Slightly confident</li>
      <li id=""conf-3"">3: Somewhat confident</li>
      <li id=""conf-4"">4: Very confident</li>
      <li id=""conf-5"">5: Completely confident</li>
    </ul>","4","","","","","","",""
"","","","","","psychophysics","160","563132","0.0-10.0-64.0","254036","","2083","","","","","","","","","","","2","key","2","16.649535999999383","680","250","2","NO"
"","","","","","html-keyboard-response","161","563464","0.0-10.0-65.0","254036","","331","","","","","","","","","","
    <p>How confident are you in your response? Press the corresponding keys from 1 to 5 based on your experience</p>
    <ul id=""confidence-levels"">
      <li id=""conf-1"">1: Not at all confident</li>
      <li id=""conf-2"">2: Slightly confident</li>
      <li id=""conf-3"">3: Somewhat confident</li>
      <li id=""conf-4"">4: Very confident</li>
      <li id=""conf-5"">5: Completely confident</li>
    </ul>","4","","","","","","",""
"","","","","","psychophysics","162","565267","0.0-10.0-66.0","254036","","1796","","","","","","","","","","","1","key","1","16.648666666666504","680","250","2","YES"
"","","","","","html-keyboard-response","163","565535","0.0-10.0-67.0","254036","","267","","","","","","","","","","
    <p>How confident are you in your response? Press the corresponding keys from 1 to 5 based on your experience</p>
    <ul id=""confidence-levels"">
      <li id=""conf-1"">1: Not at all confident</li>
      <li id=""conf-2"">2: Slightly confident</li>
      <li id=""conf-3"">3: Somewhat confident</li>
      <li id=""conf-4"">4: Very confident</li>
      <li id=""conf-5"">5: Completely confident</li>
    </ul>","5","","","","","","",""
"","","","","","psychophysics","164","567351","0.0-10.0-68.0","254036","","1812","","","","","","","","","","","1","key","1","16.64874311926595","680","250","2","YES"
"","","","","","html-keyboard-response","165","567497","0.0-10.0-69.0","254036","","144","","","","","","","","","","
    <p>How confident are you in your response? Press the corresponding keys from 1 to 5 based on your experience</p>
    <ul id=""confidence-levels"">
      <li id=""conf-1"">1: Not at all confident</li>
      <li id=""conf-2"">2: Slightly confident</li>
      <li id=""conf-3"">3: Somewhat confident</li>
      <li id=""conf-4"">4: Very confident</li>
      <li id=""conf-5"">5: Completely confident</li>
    </ul>","5","","","","","","",""
"","","","","","psychophysics","166","569726","0.0-10.0-70.0","254036","","2224","","","","","","","","","","","1","key","1","16.64962686567199","680","250","2","YES"
"","","","","","html-keyboard-response","167","569806","0.0-10.0-71.0","254036","","79","","","","","","","","","","
    <p>How confident are you in your response? Press the corresponding keys from 1 to 5 based on your experience</p>
    <ul id=""confidence-levels"">
      <li id=""conf-1"">1: Not at all confident</li>
      <li id=""conf-2"">2: Slightly confident</li>
      <li id=""conf-3"">3: Somewhat confident</li>
      <li id=""conf-4"">4: Very confident</li>
      <li id=""conf-5"">5: Completely confident</li>
    </ul>","5","","","","","","",""
"","","","","","psychophysics","168","571224","0.0-10.0-72.0","254036","","1400","","","","","","","","","","","2","key","2","16.651470588235295","680","250","2","NO"
"","","","","","html-keyboard-response","169","571383","0.0-10.0-73.0","254036","","157","","","","","","","","","","
    <p>How confident are you in your response? Press the corresponding keys from 1 to 5 based on your experience</p>
    <ul id=""confidence-levels"">
      <li id=""conf-1"">1: Not at all confident</li>
      <li id=""conf-2"">2: Slightly confident</li>
      <li id=""conf-3"">3: Somewhat confident</li>
      <li id=""conf-4"">4: Very confident</li>
      <li id=""conf-5"">5: Completely confident</li>
    </ul>","5","","","","","","",""
"","","","","","psychophysics","170","574594","0.0-10.0-74.0","254036","","3205","","","","","","","","","","","1","key","1","16.65087046632133","680","250","2","NO"
"","","","","","html-keyboard-response","171","574727","0.0-10.0-75.0","254036","","132","","","","","","","","","","
    <p>How confident are you in your response? Press the corresponding keys from 1 to 5 based on your experience</p>
    <ul id=""confidence-levels"">
      <li id=""conf-1"">1: Not at all confident</li>
      <li id=""conf-2"">2: Slightly confident</li>
      <li id=""conf-3"">3: Somewhat confident</li>
      <li id=""conf-4"">4: Very confident</li>
      <li id=""conf-5"">5: Completely confident</li>
    </ul>","5","","","","","","",""
"","","","","","psychophysics","172","576934","0.0-10.0-76.0","254036","","2200","","","","","","","","","","","2","key","2","16.651651515150938","680","250","1","YES"
"","","","","","html-keyboard-response","173","577105","0.0-10.0-77.0","254036","","169","","","","","","","","","","
    <p>How confident are you in your response? Press the corresponding keys from 1 to 5 based on your experience</p>
    <ul id=""confidence-levels"">
      <li id=""conf-1"">1: Not at all confident</li>
      <li id=""conf-2"">2: Slightly confident</li>
      <li id=""conf-3"">3: Somewhat confident</li>
      <li id=""conf-4"">4: Very confident</li>
      <li id=""conf-5"">5: Completely confident</li>
    </ul>","5","","","","","","",""
"","","","","","html-keyboard-response","174","580386","0.0-11.0","254036","","3279","","","","","","","","","","Your average response time is null ms You are doing great"," ","","","","","","",""
"","","","","","html-button-response","175","660370","0.0-12.0","254036","","79983","","","","","","","","","","<p>You have successfully completed one block of the experiment. The next part of the experiment can be started in <span id=""clock"">1:00</span> <br>You can take a break for a minute or more if you like and Press continue when you are ready","0","","","","","","",""
"","","","","","psychophysics","176","663106","0.0-13.0-0.0","254036","","2726","","","","","","","","","","","1","key","1","16.650713414634527","680","250","1","25"
"","","","","","html-keyboard-response","177","663948","0.0-13.0-1.0","254036","","841","","","","","","","","","","
    <p>How confident are you in your response? Press the corresponding keys from 1 to 5 based on your experience</p>
    <ul id=""confidence-levels"">
      <li id=""conf-1"">1: Not at all confident</li>
      <li id=""conf-2"">2: Slightly confident</li>
      <li id=""conf-3"">3: Somewhat confident</li>
      <li id=""conf-4"">4: Very confident</li>
      <li id=""conf-5"">5: Completely confident</li>
    </ul>","4","","","","","","",""
"","","","","","psychophysics","178","665666","0.0-13.0-2.0","254036","","1714","","","","","","","","","","","2","key","2","16.645233009709045","680","250","1","300"
"","","","","","html-keyboard-response","179","666271","0.0-13.0-3.0","254036","","604","","","","","","","","","","
    <p>How confident are you in your response? Press the corresponding keys from 1 to 5 based on your experience</p>
    <ul id=""confidence-levels"">
      <li id=""conf-1"">1: Not at all confident</li>
      <li id=""conf-2"">2: Slightly confident</li>
      <li id=""conf-3"">3: Somewhat confident</li>
      <li id=""conf-4"">4: Very confident</li>
      <li id=""conf-5"">5: Completely confident</li>
    </ul>","5","","","","","","",""
"","","","","","psychophysics","180","667924","0.0-13.0-4.0","254036","","1648","","","","","","","","","","","2","key","2","16.64568686868638","680","250","1","100"
"","","","","","html-keyboard-response","181","668252","0.0-13.0-5.0","254036","","327","","","","","","","","","","
    <p>How confident are you in your response? Press the corresponding keys from 1 to 5 based on your experience</p>
    <ul id=""confidence-levels"">
      <li id=""conf-1"">1: Not at all confident</li>
      <li id=""conf-2"">2: Slightly confident</li>
      <li id=""conf-3"">3: Somewhat confident</li>
      <li id=""conf-4"">4: Very confident</li>
      <li id=""conf-5"">5: Completely confident</li>
    </ul>","5","","","","","","",""
"","","","","","psychophysics","182","669817","0.0-13.0-6.0","254036","","1559","","","","","","","","","","","1","key","1","16.649795698924542","680","250","1","150"
"","","","","","html-keyboard-response","183","670851","0.0-13.0-7.0","254036","","1032","","","","","","","","","","
    <p>How confident are you in your response? Press the corresponding keys from 1 to 5 based on your experience</p>
    <ul id=""confidence-levels"">
      <li id=""conf-1"">1: Not at all confident</li>
      <li id=""conf-2"">2: Slightly confident</li>
      <li id=""conf-3"">3: Somewhat confident</li>
      <li id=""conf-4"">4: Very confident</li>
      <li id=""conf-5"">5: Completely confident</li>
    </ul>","5","","","","","","",""
"","","","","","psychophysics","184","673255","0.0-13.0-8.0","254036","","2395","","","","","","","","","","","2","key","2","16.646368055555083","680","250","1","25"
"","","","","","html-keyboard-response","185","673729","0.0-13.0-9.0","254036","","473","","","","","","","","","","
    <p>How confident are you in your response? Press the corresponding keys from 1 to 5 based on your experience</p>
    <ul id=""confidence-levels"">
      <li id=""conf-1"">1: Not at all confident</li>
      <li id=""conf-2"">2: Slightly confident</li>
      <li id=""conf-3"">3: Somewhat confident</li>
      <li id=""conf-4"">4: Very confident</li>
      <li id=""conf-5"">5: Completely confident</li>
    </ul>","5","","","","","","",""
"","","","","","psychophysics","186","675248","0.0-13.0-10.0","254036","","1513","","","","","","","","","","","2","key","2","16.831483516482646","680","250","1","200"
"","","","","","html-keyboard-response","187","675564","0.0-13.0-11.0","254036","","315","","","","","","","","","","
    <p>How confident are you in your response? Press the corresponding keys from 1 to 5 based on your experience</p>
    <ul id=""confidence-levels"">
      <li id=""conf-1"">1: Not at all confident</li>
      <li id=""conf-2"">2: Slightly confident</li>
      <li id=""conf-3"">3: Somewhat confident</li>
      <li id=""conf-4"">4: Very confident</li>
      <li id=""conf-5"">5: Completely confident</li>
    </ul>","5","","","","","","",""
"","","","","","psychophysics","188","677588","0.0-13.0-12.0","254036","","2018","","","","","","","","","","","2","key","2","16.648413223140366","680","250","1","80"
"","","","","","html-keyboard-response","189","678176","0.0-13.0-13.0","254036","","587","","","","","","","","","","
    <p>How confident are you in your response? Press the corresponding keys from 1 to 5 based on your experience</p>
    <ul id=""confidence-levels"">
      <li id=""conf-1"">1: Not at all confident</li>
      <li id=""conf-2"">2: Slightly confident</li>
      <li id=""conf-3"">3: Somewhat confident</li>
      <li id=""conf-4"">4: Very confident</li>
      <li id=""conf-5"">5: Completely confident</li>
    </ul>","4","","","","","","",""
"","","","","","psychophysics","190","679457","0.0-13.0-14.0","254036","","1276","","","","","","","","","","","2","key","2","16.645776315789828","680","250","1","80"
"","","","","","html-keyboard-response","191","679700","0.0-13.0-15.0","254036","","242","","","","","","","","","","
    <p>How confident are you in your response? Press the corresponding keys from 1 to 5 based on your experience</p>
    <ul id=""confidence-levels"">
      <li id=""conf-1"">1: Not at all confident</li>
      <li id=""conf-2"">2: Slightly confident</li>
      <li id=""conf-3"">3: Somewhat confident</li>
      <li id=""conf-4"">4: Very confident</li>
      <li id=""conf-5"">5: Completely confident</li>
    </ul>","4","","","","","","",""
"","","","","","psychophysics","192","681027","0.0-13.0-16.0","254036","","1324","","","","","","","","","","","2","key","2","16.648987500001386","680","250","1","200"
"","","","","","html-keyboard-response","193","681436","0.0-13.0-17.0","254036","","408","","","","","","","","","","
    <p>How confident are you in your response? Press the corresponding keys from 1 to 5 based on your experience</p>
    <ul id=""confidence-levels"">
      <li id=""conf-1"">1: Not at all confident</li>
      <li id=""conf-2"">2: Slightly confident</li>
      <li id=""conf-3"">3: Somewhat confident</li>
      <li id=""conf-4"">4: Very confident</li>
      <li id=""conf-5"">5: Completely confident</li>
    </ul>","5","","","","","","",""
"","","","","","psychophysics","194","683829","0.0-13.0-18.0","254036","","2387","","","","","","","","","","","0","key","0","16.6493680555561","680","250","1","100"
"","","","","","html-keyboard-response","195","686728","0.0-13.0-19.0","254036","","2898","","","","","","","","","","
    <p>How confident are you in your response? Press the corresponding keys from 1 to 5 based on your experience</p>
    <ul id=""confidence-levels"">
      <li id=""conf-1"">1: Not at all confident</li>
      <li id=""conf-2"">2: Slightly confident</li>
      <li id=""conf-3"">3: Somewhat confident</li>
      <li id=""conf-4"">4: Very confident</li>
      <li id=""conf-5"">5: Completely confident</li>
    </ul>","3","","","","","","",""
"","","","","","psychophysics","196","688285","0.0-13.0-20.0","254036","","1550","","","","","","","","","","","2","key","2","16.640946808510133","680","250","1","50"
"","","","","","html-keyboard-response","197","688829","0.0-13.0-21.0","254036","","543","","","","","","","","","","
    <p>How confident are you in your response? Press the corresponding keys from 1 to 5 based on your experience</p>
    <ul id=""confidence-levels"">
      <li id=""conf-1"">1: Not at all confident</li>
      <li id=""conf-2"">2: Slightly confident</li>
      <li id=""conf-3"">3: Somewhat confident</li>
      <li id=""conf-4"">4: Very confident</li>
      <li id=""conf-5"">5: Completely confident</li>
    </ul>","3","","","","","","",""
"","","","","","psychophysics","198","690702","0.0-13.0-22.0","254036","","1867","","","","","","","","","","","2","key","2","16.648814159291963","680","250","1","50"
"","","","","","html-keyboard-response","199","691470","0.0-13.0-23.0","254036","","766","","","","","","","","","","
    <p>How confident are you in your response? Press the corresponding keys from 1 to 5 based on your experience</p>
    <ul id=""confidence-levels"">
      <li id=""conf-1"">1: Not at all confident</li>
      <li id=""conf-2"">2: Slightly confident</li>
      <li id=""conf-3"">3: Somewhat confident</li>
      <li id=""conf-4"">4: Very confident</li>
      <li id=""conf-5"">5: Completely confident</li>
    </ul>","4","","","","","","",""
"","","","","","psychophysics","200","693041","0.0-13.0-24.0","254036","","1566","","","","","","","","","","","2","key","2","16.644585106383136","680","250","1","150"
"","","","","","html-keyboard-response","201","693492","0.0-13.0-25.0","254036","","450","","","","","","","","","","
    <p>How confident are you in your response? Press the corresponding keys from 1 to 5 based on your experience</p>
    <ul id=""confidence-levels"">
      <li id=""conf-1"">1: Not at all confident</li>
      <li id=""conf-2"">2: Slightly confident</li>
      <li id=""conf-3"">3: Somewhat confident</li>
      <li id=""conf-4"">4: Very confident</li>
      <li id=""conf-5"">5: Completely confident</li>
    </ul>","5","","","","","","",""
"","","","","","psychophysics","202","695997","0.0-13.0-26.0","254036","","2500","","","","","","","","","","","0","key","0","16.75922666666641","680","250","1","80"
"","","","","","html-keyboard-response","203","697636","0.0-13.0-27.0","254036","","1637","","","","","","","","","","
    <p>How confident are you in your response? Press the corresponding keys from 1 to 5 based on your experience</p>
    <ul id=""confidence-levels"">
      <li id=""conf-1"">1: Not at all confident</li>
      <li id=""conf-2"">2: Slightly confident</li>
      <li id=""conf-3"">3: Somewhat confident</li>
      <li id=""conf-4"">4: Very confident</li>
      <li id=""conf-5"">5: Completely confident</li>
    </ul>","3","","","","","","",""
"","","","","","psychophysics","204","709841","0.0-13.0-28.0","254036","","12200","","","","","","","","","","","2","key","2","16.650778990450135","680","250","1","200"
"","","","","","html-keyboard-response","205","710545","0.0-13.0-29.0","254036","","703","","","","","","","","","","
    <p>How confident are you in your response? Press the corresponding keys from 1 to 5 based on your experience</p>
    <ul id=""confidence-levels"">
      <li id=""conf-1"">1: Not at all confident</li>
      <li id=""conf-2"">2: Slightly confident</li>
      <li id=""conf-3"">3: Somewhat confident</li>
      <li id=""conf-4"">4: Very confident</li>
      <li id=""conf-5"">5: Completely confident</li>
    </ul>","5","","","","","","",""
"","","","","","psychophysics","206","712237","0.0-13.0-30.0","254036","","1684","","","","","","","","","","","2","key","2","16.645168316831793","680","250","1","150"
"","","","","","html-keyboard-response","207","712577","0.0-13.0-31.0","254036","","338","","","","","","","","","","
    <p>How confident are you in your response? Press the corresponding keys from 1 to 5 based on your experience</p>
    <ul id=""confidence-levels"">
      <li id=""conf-1"">1: Not at all confident</li>
      <li id=""conf-2"">2: Slightly confident</li>
      <li id=""conf-3"">3: Somewhat confident</li>
      <li id=""conf-4"">4: Very confident</li>
      <li id=""conf-5"">5: Completely confident</li>
    </ul>","5","","","","","","",""
"","","","","","psychophysics","208","714176","0.0-13.0-32.0","254036","","1594","","","","","","","","","","","2","key","2","16.650718749999214","680","250","1","300"
"","","","","","html-keyboard-response","209","714626","0.0-13.0-33.0","254036","","449","","","","","","","","","","
    <p>How confident are you in your response? Press the corresponding keys from 1 to 5 based on your experience</p>
    <ul id=""confidence-levels"">
      <li id=""conf-1"">1: Not at all confident</li>
      <li id=""conf-2"">2: Slightly confident</li>
      <li id=""conf-3"">3: Somewhat confident</li>
      <li id=""conf-4"">4: Very confident</li>
      <li id=""conf-5"">5: Completely confident</li>
    </ul>","4","","","","","","",""
"","","","","","psychophysics","210","716141","0.0-13.0-34.0","254036","","1509","","","","","","","","","","","2","key","2","16.64663736263781","680","250","1","200"
"","","","","","html-keyboard-response","211","716570","0.0-13.0-35.0","254036","","427","","","","","","","","","","
    <p>How confident are you in your response? Press the corresponding keys from 1 to 5 based on your experience</p>
    <ul id=""confidence-levels"">
      <li id=""conf-1"">1: Not at all confident</li>
      <li id=""conf-2"">2: Slightly confident</li>
      <li id=""conf-3"">3: Somewhat confident</li>
      <li id=""conf-4"">4: Very confident</li>
      <li id=""conf-5"">5: Completely confident</li>
    </ul>","5","","","","","","",""
"","","","","","psychophysics","212","718443","0.0-13.0-36.0","254036","","1868","","","","","","","","","","","2","key","2","16.799053571428107","680","250","1","200"
"","","","","","html-keyboard-response","213","718664","0.0-13.0-37.0","254036","","219","","","","","","","","","","
    <p>How confident are you in your response? Press the corresponding keys from 1 to 5 based on your experience</p>
    <ul id=""confidence-levels"">
      <li id=""conf-1"">1: Not at all confident</li>
      <li id=""conf-2"">2: Slightly confident</li>
      <li id=""conf-3"">3: Somewhat confident</li>
      <li id=""conf-4"">4: Very confident</li>
      <li id=""conf-5"">5: Completely confident</li>
    </ul>","5","","","","","","",""
"","","","","","psychophysics","214","720295","0.0-13.0-38.0","254036","","1625","","","","","","","","","","","1","key","1","16.64991836734734","680","250","1","25"
"","","","","","html-keyboard-response","215","720611","0.0-13.0-39.0","254036","","314","","","","","","","","","","
    <p>How confident are you in your response? Press the corresponding keys from 1 to 5 based on your experience</p>
    <ul id=""confidence-levels"">
      <li id=""conf-1"">1: Not at all confident</li>
      <li id=""conf-2"">2: Slightly confident</li>
      <li id=""conf-3"">3: Somewhat confident</li>
      <li id=""conf-4"">4: Very confident</li>
      <li id=""conf-5"">5: Completely confident</li>
    </ul>","5","","","","","","",""
"","","","","","psychophysics","216","723645","0.0-13.0-40.0","254036","","3029","","","","","","","","","","","2","key","2","16.648532967033265","680","250","1","150"
"","","","","","html-keyboard-response","217","724059","0.0-13.0-41.0","254036","","413","","","","","","","","","","
    <p>How confident are you in your response? Press the corresponding keys from 1 to 5 based on your experience</p>
    <ul id=""confidence-levels"">
      <li id=""conf-1"">1: Not at all confident</li>
      <li id=""conf-2"">2: Slightly confident</li>
      <li id=""conf-3"">3: Somewhat confident</li>
      <li id=""conf-4"">4: Very confident</li>
      <li id=""conf-5"">5: Completely confident</li>
    </ul>","5","","","","","","",""
"","","","","","psychophysics","218","725667","0.0-13.0-42.0","254036","","1601","","","","","","","","","","","2","key","2","16.65087628865989","680","250","1","25"
"","","","","","html-keyboard-response","219","725889","0.0-13.0-43.0","254036","","220","","","","","","","","","","
    <p>How confident are you in your response? Press the corresponding keys from 1 to 5 based on your experience</p>
    <ul id=""confidence-levels"">
      <li id=""conf-1"">1: Not at all confident</li>
      <li id=""conf-2"">2: Slightly confident</li>
      <li id=""conf-3"">3: Somewhat confident</li>
      <li id=""conf-4"">4: Very confident</li>
      <li id=""conf-5"">5: Completely confident</li>
    </ul>","5","","","","","","",""
"","","","","","psychophysics","220","727283","0.0-13.0-44.0","254036","","1389","","","","","","","","","","","1","key","1","16.64832142857042","680","250","1","80"
"","","","","","html-keyboard-response","221","727484","0.0-13.0-45.0","254036","","200","","","","","","","","","","
    <p>How confident are you in your response? Press the corresponding keys from 1 to 5 based on your experience</p>
    <ul id=""confidence-levels"">
      <li id=""conf-1"">1: Not at all confident</li>
      <li id=""conf-2"">2: Slightly confident</li>
      <li id=""conf-3"">3: Somewhat confident</li>
      <li id=""conf-4"">4: Very confident</li>
      <li id=""conf-5"">5: Completely confident</li>
    </ul>","5","","","","","","",""
"","","","","","psychophysics","222","729723","0.0-13.0-46.0","254036","","2234","","","","","","","","","","","0","key","0","16.64786567164189","680","250","1","50"
"","","","","","html-keyboard-response","223","730391","0.0-13.0-47.0","254036","","667","","","","","","","","","","
    <p>How confident are you in your response? Press the corresponding keys from 1 to 5 based on your experience</p>
    <ul id=""confidence-levels"">
      <li id=""conf-1"">1: Not at all confident</li>
      <li id=""conf-2"">2: Slightly confident</li>
      <li id=""conf-3"">3: Somewhat confident</li>
      <li id=""conf-4"">4: Very confident</li>
      <li id=""conf-5"">5: Completely confident</li>
    </ul>","1","","","","","","",""
"","","","","","psychophysics","224","731437","0.0-13.0-48.0","254036","","1040","","","","","","","","","","","2","key","2","16.641403225806332","680","250","1","50"
"","","","","","html-keyboard-response","225","732094","0.0-13.0-49.0","254036","","655","","","","","","","","","","
    <p>How confident are you in your response? Press the corresponding keys from 1 to 5 based on your experience</p>
    <ul id=""confidence-levels"">
      <li id=""conf-1"">1: Not at all confident</li>
      <li id=""conf-2"">2: Slightly confident</li>
      <li id=""conf-3"">3: Somewhat confident</li>
      <li id=""conf-4"">4: Very confident</li>
      <li id=""conf-5"">5: Completely confident</li>
    </ul>","3","","","","","","",""
"","","","","","psychophysics","226","734534","0.0-13.0-50.0","254036","","2435","","","","","","","","","","","2","key","2","16.647938356164698","680","250","1","80"
"","","","","","html-keyboard-response","227","736083","0.0-13.0-51.0","254036","","1548","","","","","","","","","","
    <p>How confident are you in your response? Press the corresponding keys from 1 to 5 based on your experience</p>
    <ul id=""confidence-levels"">
      <li id=""conf-1"">1: Not at all confident</li>
      <li id=""conf-2"">2: Slightly confident</li>
      <li id=""conf-3"">3: Somewhat confident</li>
      <li id=""conf-4"">4: Very confident</li>
      <li id=""conf-5"">5: Completely confident</li>
    </ul>","5","","","","","","",""
"","","","","","psychophysics","228","737811","0.0-13.0-52.0","254036","","1721","","","","","","","","","","","2","key","2","16.652124999999963","680","250","1","200"
"","","","","","html-keyboard-response","229","738286","0.0-13.0-53.0","254036","","474","","","","","","","","","","
    <p>How confident are you in your response? Press the corresponding keys from 1 to 5 based on your experience</p>
    <ul id=""confidence-levels"">
      <li id=""conf-1"">1: Not at all confident</li>
      <li id=""conf-2"">2: Slightly confident</li>
      <li id=""conf-3"">3: Somewhat confident</li>
      <li id=""conf-4"">4: Very confident</li>
      <li id=""conf-5"">5: Completely confident</li>
    </ul>","5","","","","","","",""
"","","","","","psychophysics","230","739620","0.0-13.0-54.0","254036","","1327","","","","","","","","","","","2","key","2","16.64520000000048","680","250","1","100"
"","","","","","html-keyboard-response","231","739865","0.0-13.0-55.0","254036","","244","","","","","","","","","","
    <p>How confident are you in your response? Press the corresponding keys from 1 to 5 based on your experience</p>
    <ul id=""confidence-levels"">
      <li id=""conf-1"">1: Not at all confident</li>
      <li id=""conf-2"">2: Slightly confident</li>
      <li id=""conf-3"">3: Somewhat confident</li>
      <li id=""conf-4"">4: Very confident</li>
      <li id=""conf-5"">5: Completely confident</li>
    </ul>","5","","","","","","",""
"","","","","","psychophysics","232","740984","0.0-13.0-56.0","254036","","1113","","","","","","","","","","","2","key","2","16.650044776120488","680","250","1","80"
"","","","","","html-keyboard-response","233","741128","0.0-13.0-57.0","254036","","142","","","","","","","","","","
    <p>How confident are you in your response? Press the corresponding keys from 1 to 5 based on your experience</p>
    <ul id=""confidence-levels"">
      <li id=""conf-1"">1: Not at all confident</li>
      <li id=""conf-2"">2: Slightly confident</li>
      <li id=""conf-3"">3: Somewhat confident</li>
      <li id=""conf-4"">4: Very confident</li>
      <li id=""conf-5"">5: Completely confident</li>
    </ul>","5","","","","","","",""
"","","","","","psychophysics","234","742461","0.0-13.0-58.0","254036","","1328","","","","","","","","","","","2","key","2","16.649925000000803","680","250","1","80"
"","","","","","html-keyboard-response","235","742666","0.0-13.0-59.0","254036","","203","","","","","","","","","","
    <p>How confident are you in your response? Press the corresponding keys from 1 to 5 based on your experience</p>
    <ul id=""confidence-levels"">
      <li id=""conf-1"">1: Not at all confident</li>
      <li id=""conf-2"">2: Slightly confident</li>
      <li id=""conf-3"">3: Somewhat confident</li>
      <li id=""conf-4"">4: Very confident</li>
      <li id=""conf-5"">5: Completely confident</li>
    </ul>","5","","","","","","",""
"","","","","","psychophysics","236","744792","0.0-13.0-60.0","254036","","2120","","","","","","","","","","","1","key","1","16.649716535432805","680","250","1","25"
"","","","","","html-keyboard-response","237","745005","0.0-13.0-61.0","254036","","212","","","","","","","","","","
    <p>How confident are you in your response? Press the corresponding keys from 1 to 5 based on your experience</p>
    <ul id=""confidence-levels"">
      <li id=""conf-1"">1: Not at all confident</li>
      <li id=""conf-2"">2: Slightly confident</li>
      <li id=""conf-3"">3: Somewhat confident</li>
      <li id=""conf-4"">4: Very confident</li>
      <li id=""conf-5"">5: Completely confident</li>
    </ul>","5","","","","","","",""
"","","","","","psychophysics","238","746840","0.0-13.0-62.0","254036","","1829","","","","","","","","","","","1","key","1","16.648327272728256","680","250","1","150"
"","","","","","html-keyboard-response","239","747060","0.0-13.0-63.0","254036","","218","","","","","","","","","","
    <p>How confident are you in your response? Press the corresponding keys from 1 to 5 based on your experience</p>
    <ul id=""confidence-levels"">
      <li id=""conf-1"">1: Not at all confident</li>
      <li id=""conf-2"">2: Slightly confident</li>
      <li id=""conf-3"">3: Somewhat confident</li>
      <li id=""conf-4"">4: Very confident</li>
      <li id=""conf-5"">5: Completely confident</li>
    </ul>","5","","","","","","",""
"","","","","","psychophysics","240","750468","0.0-13.0-64.0","254036","","3404","","","","","","","","","","","2","key","2","17.068105527638554","680","250","1","100"
"","","","","","html-keyboard-response","241","752838","0.0-13.0-65.0","254036","","2369","","","","","","","","","","
    <p>How confident are you in your response? Press the corresponding keys from 1 to 5 based on your experience</p>
    <ul id=""confidence-levels"">
      <li id=""conf-1"">1: Not at all confident</li>
      <li id=""conf-2"">2: Slightly confident</li>
      <li id=""conf-3"">3: Somewhat confident</li>
      <li id=""conf-4"">4: Very confident</li>
      <li id=""conf-5"">5: Completely confident</li>
    </ul>","5","","","","","","",""
"","","","","","psychophysics","242","756383","0.0-13.0-66.0","254036","","3536","","","","","","","","","","","2","key","2","16.644525821596176","680","250","1","150"
"","","","","","html-keyboard-response","243","756959","0.0-13.0-67.0","254036","","574","","","","","","","","","","
    <p>How confident are you in your response? Press the corresponding keys from 1 to 5 based on your experience</p>
    <ul id=""confidence-levels"">
      <li id=""conf-1"">1: Not at all confident</li>
      <li id=""conf-2"">2: Slightly confident</li>
      <li id=""conf-3"">3: Somewhat confident</li>
      <li id=""conf-4"">4: Very confident</li>
      <li id=""conf-5"">5: Completely confident</li>
    </ul>","5","","","","","","",""
"","","","","","psychophysics","244","761898","0.0-13.0-68.0","254036","","4930","","","","","","","","","","","2","key","2","16.65107407407429","680","250","1","50"
"","","","","","html-keyboard-response","245","762201","0.0-13.0-69.0","254036","","302","","","","","","","","","","
    <p>How confident are you in your response? Press the corresponding keys from 1 to 5 based on your experience</p>
    <ul id=""confidence-levels"">
      <li id=""conf-1"">1: Not at all confident</li>
      <li id=""conf-2"">2: Slightly confident</li>
      <li id=""conf-3"">3: Somewhat confident</li>
      <li id=""conf-4"">4: Very confident</li>
      <li id=""conf-5"">5: Completely confident</li>
    </ul>","5","","","","","","",""
"","","","","","psychophysics","246","763668","0.0-13.0-70.0","254036","","1458","","","","","","","","","","","2","key","2","16.646647727271723","680","250","1","300"
"","","","","","html-keyboard-response","247","764068","0.0-13.0-71.0","254036","","399","","","","","","","","","","
    <p>How confident are you in your response? Press the corresponding keys from 1 to 5 based on your experience</p>
    <ul id=""confidence-levels"">
      <li id=""conf-1"">1: Not at all confident</li>
      <li id=""conf-2"">2: Slightly confident</li>
      <li id=""conf-3"">3: Somewhat confident</li>
      <li id=""conf-4"">4: Very confident</li>
      <li id=""conf-5"">5: Completely confident</li>
    </ul>","5","","","","","","",""
"","","","","","psychophysics","248","765474","0.0-13.0-72.0","254036","","1401","","","","","","","","","","","2","key","2","16.647847058823988","680","250","1","300"
"","","","","","html-keyboard-response","249","765803","0.0-13.0-73.0","254036","","327","","","","","","","","","","
    <p>How confident are you in your response? Press the corresponding keys from 1 to 5 based on your experience</p>
    <ul id=""confidence-levels"">
      <li id=""conf-1"">1: Not at all confident</li>
      <li id=""conf-2"">2: Slightly confident</li>
      <li id=""conf-3"">3: Somewhat confident</li>
      <li id=""conf-4"">4: Very confident</li>
      <li id=""conf-5"">5: Completely confident</li>
    </ul>","5","","","","","","",""
"","","","","","psychophysics","250","767101","0.0-13.0-74.0","254036","","1284","","","","","","","","","","","2","key","2","16.646076923076553","680","250","1","300"
"","","","","","html-keyboard-response","251","767395","0.0-13.0-75.0","254036","","294","","","","","","","","","","
    <p>How confident are you in your response? Press the corresponding keys from 1 to 5 based on your experience</p>
    <ul id=""confidence-levels"">
      <li id=""conf-1"">1: Not at all confident</li>
      <li id=""conf-2"">2: Slightly confident</li>
      <li id=""conf-3"">3: Somewhat confident</li>
      <li id=""conf-4"">4: Very confident</li>
      <li id=""conf-5"">5: Completely confident</li>
    </ul>","5","","","","","","",""
"","","","","","psychophysics","252","768873","0.0-13.0-76.0","254036","","1472","","","","","","","","","","","2","key","2","16.648988764045047","680","250","1","50"
"","","","","","html-keyboard-response","253","769035","0.0-13.0-77.0","254036","","160","","","","","","","","","","
    <p>How confident are you in your response? Press the corresponding keys from 1 to 5 based on your experience</p>
    <ul id=""confidence-levels"">
      <li id=""conf-1"">1: Not at all confident</li>
      <li id=""conf-2"">2: Slightly confident</li>
      <li id=""conf-3"">3: Somewhat confident</li>
      <li id=""conf-4"">4: Very confident</li>
      <li id=""conf-5"">5: Completely confident</li>
    </ul>","5","","","","","","",""
"","","","","","psychophysics","254","770492","0.0-13.0-78.0","254036","","1450","","","","","","","","","","","1","key","1","16.842701149424645","680","250","1","25"
"","","","","","html-keyboard-response","255","770722","0.0-13.0-79.0","254036","","229","","","","","","","","","","
    <p>How confident are you in your response? Press the corresponding keys from 1 to 5 based on your experience</p>
    <ul id=""confidence-levels"">
      <li id=""conf-1"">1: Not at all confident</li>
      <li id=""conf-2"">2: Slightly confident</li>
      <li id=""conf-3"">3: Somewhat confident</li>
      <li id=""conf-4"">4: Very confident</li>
      <li id=""conf-5"">5: Completely confident</li>
    </ul>","5","","","","","","",""
"","","","","","psychophysics","256","772174","0.0-13.0-80.0","254036","","1446","","","","","","","","","","","2","key","2","16.650758620688755","680","250","1","150"
"","","","","","html-keyboard-response","257","772353","0.0-13.0-81.0","254036","","177","","","","","","","","","","
    <p>How confident are you in your response? Press the corresponding keys from 1 to 5 based on your experience</p>
    <ul id=""confidence-levels"">
      <li id=""conf-1"">1: Not at all confident</li>
      <li id=""conf-2"">2: Slightly confident</li>
      <li id=""conf-3"">3: Somewhat confident</li>
      <li id=""conf-4"">4: Very confident</li>
      <li id=""conf-5"">5: Completely confident</li>
    </ul>","5","","","","","","",""
"","","","","","psychophysics","258","773419","0.0-13.0-82.0","254036","","1061","","","","","","","","","","","2","key","2","16.650593750000553","680","250","1","25"
"","","","","","html-keyboard-response","259","773683","0.0-13.0-83.0","254036","","263","","","","","","","","","","
    <p>How confident are you in your response? Press the corresponding keys from 1 to 5 based on your experience</p>
    <ul id=""confidence-levels"">
      <li id=""conf-1"">1: Not at all confident</li>
      <li id=""conf-2"">2: Slightly confident</li>
      <li id=""conf-3"">3: Somewhat confident</li>
      <li id=""conf-4"">4: Very confident</li>
      <li id=""conf-5"">5: Completely confident</li>
    </ul>","5","","","","","","",""
"","","","","","psychophysics","260","775510","0.0-13.0-84.0","254036","","1821","","","","","","","","","","","2","key","2","16.649963302751406","680","250","1","200"
"","","","","","html-keyboard-response","261","775713","0.0-13.0-85.0","254036","","202","","","","","","","","","","
    <p>How confident are you in your response? Press the corresponding keys from 1 to 5 based on your experience</p>
    <ul id=""confidence-levels"">
      <li id=""conf-1"">1: Not at all confident</li>
      <li id=""conf-2"">2: Slightly confident</li>
      <li id=""conf-3"">3: Somewhat confident</li>
      <li id=""conf-4"">4: Very confident</li>
      <li id=""conf-5"">5: Completely confident</li>
    </ul>","5","","","","","","",""
"","","","","","psychophysics","262","777178","0.0-13.0-86.0","254036","","1459","","","","","","","","","","","1","key","1","16.649022727272083","680","250","1","100"
"","","","","","html-keyboard-response","263","777714","0.0-13.0-87.0","254036","","534","","","","","","","","","","
    <p>How confident are you in your response? Press the corresponding keys from 1 to 5 based on your experience</p>
    <ul id=""confidence-levels"">
      <li id=""conf-1"">1: Not at all confident</li>
      <li id=""conf-2"">2: Slightly confident</li>
      <li id=""conf-3"">3: Somewhat confident</li>
      <li id=""conf-4"">4: Very confident</li>
      <li id=""conf-5"">5: Completely confident</li>
    </ul>","5","","","","","","",""
"","","","","","psychophysics","264","778919","0.0-13.0-88.0","254036","","1199","","","","","","","","","","","0","key","0","16.645888888888294","680","250","1","50"
"","","","","","html-keyboard-response","265","780139","0.0-13.0-89.0","254036","","1219","","","","","","","","","","
    <p>How confident are you in your response? Press the corresponding keys from 1 to 5 based on your experience</p>
    <ul id=""confidence-levels"">
      <li id=""conf-1"">1: Not at all confident</li>
      <li id=""conf-2"">2: Slightly confident</li>
      <li id=""conf-3"">3: Somewhat confident</li>
      <li id=""conf-4"">4: Very confident</li>
      <li id=""conf-5"">5: Completely confident</li>
    </ul>","3","","","","","","",""
"","","","","","psychophysics","266","782026","0.0-13.0-90.0","254036","","1881","","","","","","","","","","","2","key","2","16.641359649122727","680","250","1","300"
"","","","","","html-keyboard-response","267","782819","0.0-13.0-91.0","254036","","792","","","","","","","","","","
    <p>How confident are you in your response? Press the corresponding keys from 1 to 5 based on your experience</p>
    <ul id=""confidence-levels"">
      <li id=""conf-1"">1: Not at all confident</li>
      <li id=""conf-2"">2: Slightly confident</li>
      <li id=""conf-3"">3: Somewhat confident</li>
      <li id=""conf-4"">4: Very confident</li>
      <li id=""conf-5"">5: Completely confident</li>
    </ul>","4","","","","","","",""
"","","","","","psychophysics","268","785941","0.0-13.0-92.0","254036","","3118","","","","","","","","","","","2","key","2","16.647946808510707","680","250","1","100"
"","","","","","html-keyboard-response","269","786480","0.0-13.0-93.0","254036","","539","","","","","","","","","","
    <p>How confident are you in your response? Press the corresponding keys from 1 to 5 based on your experience</p>
    <ul id=""confidence-levels"">
      <li id=""conf-1"">1: Not at all confident</li>
      <li id=""conf-2"">2: Slightly confident</li>
      <li id=""conf-3"">3: Somewhat confident</li>
      <li id=""conf-4"">4: Very confident</li>
      <li id=""conf-5"">5: Completely confident</li>
    </ul>","3","","","","","","",""
"","","","","","psychophysics","270","789931","0.0-13.0-94.0","254036","","3447","","","","","","","","","","","2","key","2","16.6512705314008","680","250","1","100"
"","","","","","html-keyboard-response","271","790634","0.0-13.0-95.0","254036","","701","","","","","","","","","","
    <p>How confident are you in your response? Press the corresponding keys from 1 to 5 based on your experience</p>
    <ul id=""confidence-levels"">
      <li id=""conf-1"">1: Not at all confident</li>
      <li id=""conf-2"">2: Slightly confident</li>
      <li id=""conf-3"">3: Somewhat confident</li>
      <li id=""conf-4"">4: Very confident</li>
      <li id=""conf-5"">5: Completely confident</li>
    </ul>","5","","","","","","",""
"","","","","","psychophysics","272","792226","0.0-13.0-96.0","254036","","1584","","","","","","","","","","","2","key","2","16.64817894736893","680","250","1","300"
"","","","","","html-keyboard-response","273","792674","0.0-13.0-97.0","254036","","447","","","","","","","","","","
    <p>How confident are you in your response? Press the corresponding keys from 1 to 5 based on your experience</p>
    <ul id=""confidence-levels"">
      <li id=""conf-1"">1: Not at all confident</li>
      <li id=""conf-2"">2: Slightly confident</li>
      <li id=""conf-3"">3: Somewhat confident</li>
      <li id=""conf-4"">4: Very confident</li>
      <li id=""conf-5"">5: Completely confident</li>
    </ul>","4","","","","","","",""
"","","","","","html-keyboard-response","274","795304","0.0-14.0","254036","","2628","","","","","","","","","","Your average response time is 1346.296 ms You are doing great"," ","","","","","","",""
"","","","","","survey-text","275","907702","0.0-15.0","254036","","112381","","","","","","","","","","","{""EasyToUnderstand"":""Yes"",""Suggestions"":""The experiment was really good"",""Interface"":""Altough it was good it Could be more interactive with the user."",""Perception"":""No it did not.""}","","","","","","",""
"","","","","","html-keyboard-response","276","912713","0.0-16.0","254036","","null","","","","","","","","","","You have successfully completed all the trials. Thank you for your time. Goodbye :)","null","","","","","","",""
