"success","timeout","failed_images","failed_audio","failed_video","trial_type","trial_index","time_elapsed","internal_node_id","participant_id","view_history","rt","item_width_mm","item_height_mm","item_width_px","px2mm","view_dist_mm","item_width_deg","px2deg","win_width_deg","win_height_deg","stimulus","response","response_type","key_press","avg_frame_time","center_x","center_y","correct_response"
"true","false","[]","[]","[]","preload","0","12","0.0-0.0","276224","","","","","","","","","","","","","","","","","","",""
"","","","","","instructions","1","15832","0.0-1.0","276224","[{""page_index"":0,""viewing_time"":11240},{""page_index"":1,""viewing_time"":1514},{""page_index"":2,""viewing_time"":3063}]","15818","","","","","","","","","","","","","","","","",""
"true","","","","","fullscreen","2","29657","0.0-2.0","276224","","","","","","","","","","","","","","","","","","",""
"","","","","","virtual-chinrest","3","80994","0.0-3.0","276224","","51326","85.6","53.98","386","4.51","570.46","8.58140280902206","44.98099070634218","28.45646527344103","16.006761716310578","","","","","","","",""
"","","","","","html-keyboard-response","4","82501","0.0-4.0","276224","","1504","","","","","","","","","","This is just trial run, press Space bar to continue"," ","","","","","",""
"","","","","","psychophysics","5","86027","0.0-5.0-0.0","276224","","3518","","","","","","","","","","","1","key","1","16.650943396226417","640","250","1"
"","","","","","psychophysics","6","89241","0.0-5.0-1.0","276224","","3197","","","","","","","","","","","1","key","1","16.651041666666668","640","250","0"
"","","","","","psychophysics","7","94023","0.0-5.0-2.0","276224","","4774","","","","","","","","","","","1","key","1","16.653846153846153","640","250","1"
"","","","","","psychophysics","8","95902","0.0-5.0-3.0","276224","","1865","","","","","","","","","","","0","key","0","16.651785714285715","640","250","0"
"","","","","","psychophysics","9","97808","0.0-5.0-4.0","276224","","1897","","","","","","","","","","","1","key","1","16.646017699115045","640","250","1"
"","","","","","psychophysics","10","99638","0.0-5.0-5.0","276224","","1816","","","","","","","","","","","1","key","1","16.65137614678899","640","250","1"
"","","","","","psychophysics","11","100773","0.0-5.0-6.0","276224","","1120","","","","","","","","","","","1","key","1","16.65671641791045","640","250","1"
"","","","","","psychophysics","12","102214","0.0-5.0-7.0","276224","","1429","","","","","","","","","","","1","key","1","16.651162790697676","640","250","1"
"","","","","","html-keyboard-response","13","103970","0.0-6.0","276224","","1753","","","","","","","","","","You have successfully completed the pilot , Press Space bar to continue to main block of experiment"," ","","","","","",""
"","","","","","psychophysics","14","105942","0.0-7.0-0.0","276224","","1961","","","","","","","","","","","0","key","0","16.796610169491526","640","250","0"
"","","","","","html-keyboard-response","15","108104","0.0-7.0-1.0","276224","","2158","","","","","","","","","","
    <p>How confident are you in your response? Press the corresponding keys from 1 to 5 based on your experience</p>
    <ul id=""confidence-levels"">
      <li id=""conf-1"">1: Not at all confident</li>
      <li id=""conf-2"">2: Slightly confident</li>
      <li id=""conf-3"">3: Somewhat confident</li>
      <li id=""conf-4"">4: Very confident</li>
      <li id=""conf-5"">5: Completely confident</li>
    </ul>","5","","","","","",""
"","","","","","psychophysics","16","110133","0.0-7.0-2.0","276224","","2022","","","","","","","","","","","1","key","1","16.644628099173552","640","250","1"
"","","","","","html-keyboard-response","17","112859","0.0-7.0-3.0","276224","","2723","","","","","","","","","","
    <p>How confident are you in your response? Press the corresponding keys from 1 to 5 based on your experience</p>
    <ul id=""confidence-levels"">
      <li id=""conf-1"">1: Not at all confident</li>
      <li id=""conf-2"">2: Slightly confident</li>
      <li id=""conf-3"">3: Somewhat confident</li>
      <li id=""conf-4"">4: Very confident</li>
      <li id=""conf-5"">5: Completely confident</li>
    </ul>","5","","","","","",""
"","","","","","psychophysics","18","115334","0.0-7.0-4.0","276224","","2469","","","","","","","","","","","1","key","1","16.651006711409394","640","250","1"
"","","","","","html-keyboard-response","19","117273","0.0-7.0-5.0","276224","","1936","","","","","","","","","","
    <p>How confident are you in your response? Press the corresponding keys from 1 to 5 based on your experience</p>
    <ul id=""confidence-levels"">
      <li id=""conf-1"">1: Not at all confident</li>
      <li id=""conf-2"">2: Slightly confident</li>
      <li id=""conf-3"">3: Somewhat confident</li>
      <li id=""conf-4"">4: Very confident</li>
      <li id=""conf-5"">5: Completely confident</li>
    </ul>","4","","","","","",""
"","","","","","psychophysics","20","119980","0.0-7.0-6.0","276224","","2702","","","","","","","","","","","1","key","1","16.650306748466257","640","250","1"
"","","","","","html-keyboard-response","21","121470","0.0-7.0-7.0","276224","","1486","","","","","","","","","","
    <p>How confident are you in your response? Press the corresponding keys from 1 to 5 based on your experience</p>
    <ul id=""confidence-levels"">
      <li id=""conf-1"">1: Not at all confident</li>
      <li id=""conf-2"">2: Slightly confident</li>
      <li id=""conf-3"">3: Somewhat confident</li>
      <li id=""conf-4"">4: Very confident</li>
      <li id=""conf-5"">5: Completely confident</li>
    </ul>","5","","","","","",""
"","","","","","psychophysics","22","123650","0.0-7.0-8.0","276224","","2168","","","","","","","","","","","1","key","1","16.64885496183206","640","250","1"
"","","","","","html-keyboard-response","23","124952","0.0-7.0-9.0","276224","","1300","","","","","","","","","","
    <p>How confident are you in your response? Press the corresponding keys from 1 to 5 based on your experience</p>
    <ul id=""confidence-levels"">
      <li id=""conf-1"">1: Not at all confident</li>
      <li id=""conf-2"">2: Slightly confident</li>
      <li id=""conf-3"">3: Somewhat confident</li>
      <li id=""conf-4"">4: Very confident</li>
      <li id=""conf-5"">5: Completely confident</li>
    </ul>","5","","","","","",""
"","","","","","psychophysics","24","128303","0.0-7.0-10.0","276224","","3344","","","","","","","","","","","1","key","1","16.64676616915423","640","250","1"
"","","","","","html-keyboard-response","25","130074","0.0-7.0-11.0","276224","","1768","","","","","","","","","","
    <p>How confident are you in your response? Press the corresponding keys from 1 to 5 based on your experience</p>
    <ul id=""confidence-levels"">
      <li id=""conf-1"">1: Not at all confident</li>
      <li id=""conf-2"">2: Slightly confident</li>
      <li id=""conf-3"">3: Somewhat confident</li>
      <li id=""conf-4"">4: Very confident</li>
      <li id=""conf-5"">5: Completely confident</li>
    </ul>","5","","","","","",""
"","","","","","psychophysics","26","132476","0.0-7.0-12.0","276224","","2396","","","","","","","","","","","1","key","1","16.65277777777778","640","250","1"
"","","","","","html-keyboard-response","27","133554","0.0-7.0-13.0","276224","","1076","","","","","","","","","","
    <p>How confident are you in your response? Press the corresponding keys from 1 to 5 based on your experience</p>
    <ul id=""confidence-levels"">
      <li id=""conf-1"">1: Not at all confident</li>
      <li id=""conf-2"">2: Slightly confident</li>
      <li id=""conf-3"">3: Somewhat confident</li>
      <li id=""conf-4"">4: Very confident</li>
      <li id=""conf-5"">5: Completely confident</li>
    </ul>","5","","","","","",""
"","","","","","psychophysics","28","136213","0.0-7.0-14.0","276224","","2649","","","","","","","","","","","1","key","1","16.65","640","250","1"
"","","","","","html-keyboard-response","29","136610","0.0-7.0-15.0","276224","","393","","","","","","","","","","
    <p>How confident are you in your response? Press the corresponding keys from 1 to 5 based on your experience</p>
    <ul id=""confidence-levels"">
      <li id=""conf-1"">1: Not at all confident</li>
      <li id=""conf-2"">2: Slightly confident</li>
      <li id=""conf-3"">3: Somewhat confident</li>
      <li id=""conf-4"">4: Very confident</li>
      <li id=""conf-5"">5: Completely confident</li>
    </ul>","4","","","","","",""
"","","","","","psychophysics","30","138533","0.0-7.0-16.0","276224","","1919","","","","","","","","","","","1","key","1","16.652173913043477","640","250","1"
"","","","","","html-keyboard-response","31","139857","0.0-7.0-17.0","276224","","1322","","","","","","","","","","
    <p>How confident are you in your response? Press the corresponding keys from 1 to 5 based on your experience</p>
    <ul id=""confidence-levels"">
      <li id=""conf-1"">1: Not at all confident</li>
      <li id=""conf-2"">2: Slightly confident</li>
      <li id=""conf-3"">3: Somewhat confident</li>
      <li id=""conf-4"">4: Very confident</li>
      <li id=""conf-5"">5: Completely confident</li>
    </ul>","5","","","","","",""
"","","","","","psychophysics","32","142374","0.0-7.0-18.0","276224","","2513","","","","","","","","","","","0","key","0","16.655629139072847","640","250","0"
"","","","","","html-keyboard-response","33","143588","0.0-7.0-19.0","276224","","1210","","","","","","","","","","
    <p>How confident are you in your response? Press the corresponding keys from 1 to 5 based on your experience</p>
    <ul id=""confidence-levels"">
      <li id=""conf-1"">1: Not at all confident</li>
      <li id=""conf-2"">2: Slightly confident</li>
      <li id=""conf-3"">3: Somewhat confident</li>
      <li id=""conf-4"">4: Very confident</li>
      <li id=""conf-5"">5: Completely confident</li>
    </ul>","5","","","","","",""
"","","","","","psychophysics","34","145232","0.0-7.0-20.0","276224","","1633","","","","","","","","","","","1","key","1","16.653061224489797","640","250","1"
"","","","","","html-keyboard-response","35","146824","0.0-7.0-21.0","276224","","1587","","","","","","","","","","
    <p>How confident are you in your response? Press the corresponding keys from 1 to 5 based on your experience</p>
    <ul id=""confidence-levels"">
      <li id=""conf-1"">1: Not at all confident</li>
      <li id=""conf-2"">2: Slightly confident</li>
      <li id=""conf-3"">3: Somewhat confident</li>
      <li id=""conf-4"">4: Very confident</li>
      <li id=""conf-5"">5: Completely confident</li>
    </ul>","5","","","","","",""
"","","","","","psychophysics","36","148835","0.0-7.0-22.0","276224","","2003","","","","","","","","","","","0","key","0","16.65289256198347","640","250","0"
"","","","","","html-keyboard-response","37","152953","0.0-7.0-23.0","276224","","4114","","","","","","","","","","
    <p>How confident are you in your response? Press the corresponding keys from 1 to 5 based on your experience</p>
    <ul id=""confidence-levels"">
      <li id=""conf-1"">1: Not at all confident</li>
      <li id=""conf-2"">2: Slightly confident</li>
      <li id=""conf-3"">3: Somewhat confident</li>
      <li id=""conf-4"">4: Very confident</li>
      <li id=""conf-5"">5: Completely confident</li>
    </ul>","5","","","","","",""
"","","","","","psychophysics","38","154971","0.0-7.0-24.0","276224","","1998","","","","","","","","","","","1","key","1","16.65289256198347","640","250","1"
"","","","","","html-keyboard-response","39","159065","0.0-7.0-25.0","276224","","4091","","","","","","","","","","
    <p>How confident are you in your response? Press the corresponding keys from 1 to 5 based on your experience</p>
    <ul id=""confidence-levels"">
      <li id=""conf-1"">1: Not at all confident</li>
      <li id=""conf-2"">2: Slightly confident</li>
      <li id=""conf-3"">3: Somewhat confident</li>
      <li id=""conf-4"">4: Very confident</li>
      <li id=""conf-5"">5: Completely confident</li>
    </ul>","5","","","","","",""
"","","","","","psychophysics","40","160874","0.0-7.0-26.0","276224","","1802","","","","","","","","","","","1","key","1","16.65137614678899","640","250","1"
"","","","","","html-keyboard-response","41","161865","0.0-7.0-27.0","276224","","987","","","","","","","","","","
    <p>How confident are you in your response? Press the corresponding keys from 1 to 5 based on your experience</p>
    <ul id=""confidence-levels"">
      <li id=""conf-1"">1: Not at all confident</li>
      <li id=""conf-2"">2: Slightly confident</li>
      <li id=""conf-3"">3: Somewhat confident</li>
      <li id=""conf-4"">4: Very confident</li>
      <li id=""conf-5"">5: Completely confident</li>
    </ul>","5","","","","","",""
"","","","","","psychophysics","42","163673","0.0-7.0-28.0","276224","","1798","","","","","","","","","","","1","key","1","16.65137614678899","640","250","1"
"","","","","","html-keyboard-response","43","165516","0.0-7.0-29.0","276224","","1839","","","","","","","","","","
    <p>How confident are you in your response? Press the corresponding keys from 1 to 5 based on your experience</p>
    <ul id=""confidence-levels"">
      <li id=""conf-1"">1: Not at all confident</li>
      <li id=""conf-2"">2: Slightly confident</li>
      <li id=""conf-3"">3: Somewhat confident</li>
      <li id=""conf-4"">4: Very confident</li>
      <li id=""conf-5"">5: Completely confident</li>
    </ul>","5","","","","","",""
"","","","","","psychophysics","44","167128","0.0-7.0-30.0","276224","","1600","","","","","","","","","","","1","key","1","16.65625","640","250","1"
"","","","","","html-keyboard-response","45","168223","0.0-7.0-31.0","276224","","1088","","","","","","","","","","
    <p>How confident are you in your response? Press the corresponding keys from 1 to 5 based on your experience</p>
    <ul id=""confidence-levels"">
      <li id=""conf-1"">1: Not at all confident</li>
      <li id=""conf-2"">2: Slightly confident</li>
      <li id=""conf-3"">3: Somewhat confident</li>
      <li id=""conf-4"">4: Very confident</li>
      <li id=""conf-5"">5: Completely confident</li>
    </ul>","5","","","","","",""
"","","","","","psychophysics","46","169949","0.0-7.0-32.0","276224","","1718","","","","","","","","","","","1","key","1","16.653846153846153","640","250","1"
"","","","","","html-keyboard-response","47","171438","0.0-7.0-33.0","276224","","1487","","","","","","","","","","
    <p>How confident are you in your response? Press the corresponding keys from 1 to 5 based on your experience</p>
    <ul id=""confidence-levels"">
      <li id=""conf-1"">1: Not at all confident</li>
      <li id=""conf-2"">2: Slightly confident</li>
      <li id=""conf-3"">3: Somewhat confident</li>
      <li id=""conf-4"">4: Very confident</li>
      <li id=""conf-5"">5: Completely confident</li>
    </ul>","5","","","","","",""
"","","","","","psychophysics","48","173267","0.0-7.0-34.0","276224","","1824","","","","","","","","","","","1","key","1","16.645454545454545","640","250","1"
"","","","","","html-keyboard-response","49","174241","0.0-7.0-35.0","276224","","972","","","","","","","","","","
    <p>How confident are you in your response? Press the corresponding keys from 1 to 5 based on your experience</p>
    <ul id=""confidence-levels"">
      <li id=""conf-1"">1: Not at all confident</li>
      <li id=""conf-2"">2: Slightly confident</li>
      <li id=""conf-3"">3: Somewhat confident</li>
      <li id=""conf-4"">4: Very confident</li>
      <li id=""conf-5"">5: Completely confident</li>
    </ul>","5","","","","","",""
"","","","","","psychophysics","50","175646","0.0-7.0-36.0","276224","","1399","","","","","","","","","","","1","key","1","16.666666666666668","640","250","1"
"","","","","","html-keyboard-response","51","176570","0.0-7.0-37.0","276224","","922","","","","","","","","","","
    <p>How confident are you in your response? Press the corresponding keys from 1 to 5 based on your experience</p>
    <ul id=""confidence-levels"">
      <li id=""conf-1"">1: Not at all confident</li>
      <li id=""conf-2"">2: Slightly confident</li>
      <li id=""conf-3"">3: Somewhat confident</li>
      <li id=""conf-4"">4: Very confident</li>
      <li id=""conf-5"">5: Completely confident</li>
    </ul>","5","","","","","",""
"","","","","","psychophysics","52","178714","0.0-7.0-38.0","276224","","2142","","","","","","","","","","","0","key","0","16.6484375","640","250","0"
"","","","","","html-keyboard-response","53","179279","0.0-7.0-39.0","276224","","561","","","","","","","","","","
    <p>How confident are you in your response? Press the corresponding keys from 1 to 5 based on your experience</p>
    <ul id=""confidence-levels"">
      <li id=""conf-1"">1: Not at all confident</li>
      <li id=""conf-2"">2: Slightly confident</li>
      <li id=""conf-3"">3: Somewhat confident</li>
      <li id=""conf-4"">4: Very confident</li>
      <li id=""conf-5"">5: Completely confident</li>
    </ul>","5","","","","","",""
"","","","","","psychophysics","54","180727","0.0-7.0-40.0","276224","","1442","","","","","","","","","","","1","key","1","16.655172413793103","640","250","1"
"","","","","","html-keyboard-response","55","181403","0.0-7.0-41.0","276224","","672","","","","","","","","","","
    <p>How confident are you in your response? Press the corresponding keys from 1 to 5 based on your experience</p>
    <ul id=""confidence-levels"">
      <li id=""conf-1"">1: Not at all confident</li>
      <li id=""conf-2"">2: Slightly confident</li>
      <li id=""conf-3"">3: Somewhat confident</li>
      <li id=""conf-4"">4: Very confident</li>
      <li id=""conf-5"">5: Completely confident</li>
    </ul>","5","","","","","",""
"","","","","","psychophysics","56","182755","0.0-7.0-42.0","276224","","1344","","","","","","","","","","","1","key","1","16.65432098765432","640","250","1"
"","","","","","html-keyboard-response","57","183441","0.0-7.0-43.0","276224","","682","","","","","","","","","","
    <p>How confident are you in your response? Press the corresponding keys from 1 to 5 based on your experience</p>
    <ul id=""confidence-levels"">
      <li id=""conf-1"">1: Not at all confident</li>
      <li id=""conf-2"">2: Slightly confident</li>
      <li id=""conf-3"">3: Somewhat confident</li>
      <li id=""conf-4"">4: Very confident</li>
      <li id=""conf-5"">5: Completely confident</li>
    </ul>","5","","","","","",""
"","","","","","psychophysics","58","184524","0.0-7.0-44.0","276224","","1079","","","","","","","","","","","1","key","1","16.646153846153847","640","250","1"
"","","","","","html-keyboard-response","59","184894","0.0-7.0-45.0","276224","","367","","","","","","","","","","
    <p>How confident are you in your response? Press the corresponding keys from 1 to 5 based on your experience</p>
    <ul id=""confidence-levels"">
      <li id=""conf-1"">1: Not at all confident</li>
      <li id=""conf-2"">2: Slightly confident</li>
      <li id=""conf-3"">3: Somewhat confident</li>
      <li id=""conf-4"">4: Very confident</li>
      <li id=""conf-5"">5: Completely confident</li>
    </ul>","5","","","","","",""
"","","","","","psychophysics","60","186522","0.0-7.0-46.0","276224","","1624","","","","","","","","","","","0","key","0","16.824742268041238","640","250","0"
"","","","","","html-keyboard-response","61","186973","0.0-7.0-47.0","276224","","448","","","","","","","","","","
    <p>How confident are you in your response? Press the corresponding keys from 1 to 5 based on your experience</p>
    <ul id=""confidence-levels"">
      <li id=""conf-1"">1: Not at all confident</li>
      <li id=""conf-2"">2: Slightly confident</li>
      <li id=""conf-3"">3: Somewhat confident</li>
      <li id=""conf-4"">4: Very confident</li>
      <li id=""conf-5"">5: Completely confident</li>
    </ul>","5","","","","","",""
"","","","","","psychophysics","62","188204","0.0-7.0-48.0","276224","","1226","","","","","","","","","","","1","key","1","16.64864864864865","640","250","1"
"","","","","","html-keyboard-response","63","188594","0.0-7.0-49.0","276224","","387","","","","","","","","","","
    <p>How confident are you in your response? Press the corresponding keys from 1 to 5 based on your experience</p>
    <ul id=""confidence-levels"">
      <li id=""conf-1"">1: Not at all confident</li>
      <li id=""conf-2"">2: Slightly confident</li>
      <li id=""conf-3"">3: Somewhat confident</li>
      <li id=""conf-4"">4: Very confident</li>
      <li id=""conf-5"">5: Completely confident</li>
    </ul>","5","","","","","",""
"","","","","","psychophysics","64","190015","0.0-7.0-50.0","276224","","1414","","","","","","","","","","","1","key","1","16.647058823529413","640","250","1"
"","","","","","html-keyboard-response","65","190430","0.0-7.0-51.0","276224","","418","","","","","","","","","","
    <p>How confident are you in your response? Press the corresponding keys from 1 to 5 based on your experience</p>
    <ul id=""confidence-levels"">
      <li id=""conf-1"">1: Not at all confident</li>
      <li id=""conf-2"">2: Slightly confident</li>
      <li id=""conf-3"">3: Somewhat confident</li>
      <li id=""conf-4"">4: Very confident</li>
      <li id=""conf-5"">5: Completely confident</li>
    </ul>","5","","","","","",""
"","","","","","psychophysics","66","191618","0.0-7.0-52.0","276224","","1182","","","","","","","","","","","1","key","1","16.661971830985916","640","250","1"
"","","","","","html-keyboard-response","67","191988","0.0-7.0-53.0","276224","","366","","","","","","","","","","
    <p>How confident are you in your response? Press the corresponding keys from 1 to 5 based on your experience</p>
    <ul id=""confidence-levels"">
      <li id=""conf-1"">1: Not at all confident</li>
      <li id=""conf-2"">2: Slightly confident</li>
      <li id=""conf-3"">3: Somewhat confident</li>
      <li id=""conf-4"">4: Very confident</li>
      <li id=""conf-5"">5: Completely confident</li>
    </ul>","5","","","","","",""
"","","","","","psychophysics","68","193309","0.0-7.0-54.0","276224","","1317","","","","","","","","","","","1","key","1","16.645569620253166","640","250","1"
"","","","","","html-keyboard-response","69","193736","0.0-7.0-55.0","276224","","426","","","","","","","","","","
    <p>How confident are you in your response? Press the corresponding keys from 1 to 5 based on your experience</p>
    <ul id=""confidence-levels"">
      <li id=""conf-1"">1: Not at all confident</li>
      <li id=""conf-2"">2: Slightly confident</li>
      <li id=""conf-3"">3: Somewhat confident</li>
      <li id=""conf-4"">4: Very confident</li>
      <li id=""conf-5"">5: Completely confident</li>
    </ul>","5","","","","","",""
"","","","","","psychophysics","70","194805","0.0-7.0-56.0","276224","","1066","","","","","","","","","","","0","key","0","16.65625","640","250","0"
"","","","","","html-keyboard-response","71","196417","0.0-7.0-57.0","276224","","1609","","","","","","","","","","
    <p>How confident are you in your response? Press the corresponding keys from 1 to 5 based on your experience</p>
    <ul id=""confidence-levels"">
      <li id=""conf-1"">1: Not at all confident</li>
      <li id=""conf-2"">2: Slightly confident</li>
      <li id=""conf-3"">3: Somewhat confident</li>
      <li id=""conf-4"">4: Very confident</li>
      <li id=""conf-5"">5: Completely confident</li>
    </ul>","5","","","","","",""
"","","","","","psychophysics","72","198088","0.0-7.0-58.0","276224","","1666","","","","","","","","","","","1","key","1","16.65","640","250","1"
"","","","","","html-keyboard-response","73","198470","0.0-7.0-59.0","276224","","378","","","","","","","","","","
    <p>How confident are you in your response? Press the corresponding keys from 1 to 5 based on your experience</p>
    <ul id=""confidence-levels"">
      <li id=""conf-1"">1: Not at all confident</li>
      <li id=""conf-2"">2: Slightly confident</li>
      <li id=""conf-3"">3: Somewhat confident</li>
      <li id=""conf-4"">4: Very confident</li>
      <li id=""conf-5"">5: Completely confident</li>
    </ul>","5","","","","","",""
"","","","","","psychophysics","74","200809","0.0-7.0-60.0","276224","","2333","","","","","","","","","","","1","key","1","16.65","640","250","1"
"","","","","","html-keyboard-response","75","201251","0.0-7.0-61.0","276224","","438","","","","","","","","","","
    <p>How confident are you in your response? Press the corresponding keys from 1 to 5 based on your experience</p>
    <ul id=""confidence-levels"">
      <li id=""conf-1"">1: Not at all confident</li>
      <li id=""conf-2"">2: Slightly confident</li>
      <li id=""conf-3"">3: Somewhat confident</li>
      <li id=""conf-4"">4: Very confident</li>
      <li id=""conf-5"">5: Completely confident</li>
    </ul>","5","","","","","",""
"","","","","","psychophysics","76","202731","0.0-7.0-62.0","276224","","1469","","","","","","","","","","","0","key","0","16.651685393258425","640","250","0"
"","","","","","html-keyboard-response","77","203102","0.0-7.0-63.0","276224","","367","","","","","","","","","","
    <p>How confident are you in your response? Press the corresponding keys from 1 to 5 based on your experience</p>
    <ul id=""confidence-levels"">
      <li id=""conf-1"">1: Not at all confident</li>
      <li id=""conf-2"">2: Slightly confident</li>
      <li id=""conf-3"">3: Somewhat confident</li>
      <li id=""conf-4"">4: Very confident</li>
      <li id=""conf-5"">5: Completely confident</li>
    </ul>","5","","","","","",""
"","","","","","psychophysics","78","204288","0.0-7.0-64.0","276224","","1182","","","","","","","","","","","1","key","1","16.64788732394366","640","250","1"
"","","","","","html-keyboard-response","79","204628","0.0-7.0-65.0","276224","","333","","","","","","","","","","
    <p>How confident are you in your response? Press the corresponding keys from 1 to 5 based on your experience</p>
    <ul id=""confidence-levels"">
      <li id=""conf-1"">1: Not at all confident</li>
      <li id=""conf-2"">2: Slightly confident</li>
      <li id=""conf-3"">3: Somewhat confident</li>
      <li id=""conf-4"">4: Very confident</li>
      <li id=""conf-5"">5: Completely confident</li>
    </ul>","5","","","","","",""
"","","","","","psychophysics","80","206481","0.0-7.0-66.0","276224","","1841","","","","","","","","","","","0","key","0","16.64864864864865","640","250","0"
"","","","","","html-keyboard-response","81","206993","0.0-7.0-67.0","276224","","508","","","","","","","","","","
    <p>How confident are you in your response? Press the corresponding keys from 1 to 5 based on your experience</p>
    <ul id=""confidence-levels"">
      <li id=""conf-1"">1: Not at all confident</li>
      <li id=""conf-2"">2: Slightly confident</li>
      <li id=""conf-3"">3: Somewhat confident</li>
      <li id=""conf-4"">4: Very confident</li>
      <li id=""conf-5"">5: Completely confident</li>
    </ul>","5","","","","","",""
"","","","","","psychophysics","82","208193","0.0-7.0-68.0","276224","","1187","","","","","","","","","","","1","key","1","16.65277777777778","640","250","1"
"","","","","","html-keyboard-response","83","208596","0.0-7.0-69.0","276224","","399","","","","","","","","","","
    <p>How confident are you in your response? Press the corresponding keys from 1 to 5 based on your experience</p>
    <ul id=""confidence-levels"">
      <li id=""conf-1"">1: Not at all confident</li>
      <li id=""conf-2"">2: Slightly confident</li>
      <li id=""conf-3"">3: Somewhat confident</li>
      <li id=""conf-4"">4: Very confident</li>
      <li id=""conf-5"">5: Completely confident</li>
    </ul>","5","","","","","",""
"","","","","","psychophysics","84","210919","0.0-7.0-70.0","276224","","2317","","","","","","","","","","","0","key","0","16.654676258992804","640","250","0"
"","","","","","html-keyboard-response","85","212237","0.0-7.0-71.0","276224","","1314","","","","","","","","","","
    <p>How confident are you in your response? Press the corresponding keys from 1 to 5 based on your experience</p>
    <ul id=""confidence-levels"">
      <li id=""conf-1"">1: Not at all confident</li>
      <li id=""conf-2"">2: Slightly confident</li>
      <li id=""conf-3"">3: Somewhat confident</li>
      <li id=""conf-4"">4: Very confident</li>
      <li id=""conf-5"">5: Completely confident</li>
    </ul>","5","","","","","",""
"","","","","","psychophysics","86","214270","0.0-7.0-72.0","276224","","2021","","","","","","","","","","","1","key","1","16.647540983606557","640","250","1"
"","","","","","html-keyboard-response","87","214911","0.0-7.0-73.0","276224","","638","","","","","","","","","","
    <p>How confident are you in your response? Press the corresponding keys from 1 to 5 based on your experience</p>
    <ul id=""confidence-levels"">
      <li id=""conf-1"">1: Not at all confident</li>
      <li id=""conf-2"">2: Slightly confident</li>
      <li id=""conf-3"">3: Somewhat confident</li>
      <li id=""conf-4"">4: Very confident</li>
      <li id=""conf-5"">5: Completely confident</li>
    </ul>","5","","","","","",""
"","","","","","psychophysics","88","216234","0.0-7.0-74.0","276224","","1319","","","","","","","","","","","0","key","0","16.65","640","250","0"
"","","","","","html-keyboard-response","89","216646","0.0-7.0-75.0","276224","","407","","","","","","","","","","
    <p>How confident are you in your response? Press the corresponding keys from 1 to 5 based on your experience</p>
    <ul id=""confidence-levels"">
      <li id=""conf-1"">1: Not at all confident</li>
      <li id=""conf-2"">2: Slightly confident</li>
      <li id=""conf-3"">3: Somewhat confident</li>
      <li id=""conf-4"">4: Very confident</li>
      <li id=""conf-5"">5: Completely confident</li>
    </ul>","5","","","","","",""
"","","","","","psychophysics","90","218036","0.0-7.0-76.0","276224","","1384","","","","","","","","","","","1","key","1","16.650602409638555","640","250","1"
"","","","","","html-keyboard-response","91","218420","0.0-7.0-77.0","276224","","380","","","","","","","","","","
    <p>How confident are you in your response? Press the corresponding keys from 1 to 5 based on your experience</p>
    <ul id=""confidence-levels"">
      <li id=""conf-1"">1: Not at all confident</li>
      <li id=""conf-2"">2: Slightly confident</li>
      <li id=""conf-3"">3: Somewhat confident</li>
      <li id=""conf-4"">4: Very confident</li>
      <li id=""conf-5"">5: Completely confident</li>
    </ul>","5","","","","","",""
"","","","","","psychophysics","92","222073","0.0-7.0-78.0","276224","","3649","","","","","","","","","","","1","key","1","16.652968036529682","640","250","1"
"","","","","","html-keyboard-response","93","222838","0.0-7.0-79.0","276224","","758","","","","","","","","","","
    <p>How confident are you in your response? Press the corresponding keys from 1 to 5 based on your experience</p>
    <ul id=""confidence-levels"">
      <li id=""conf-1"">1: Not at all confident</li>
      <li id=""conf-2"">2: Slightly confident</li>
      <li id=""conf-3"">3: Somewhat confident</li>
      <li id=""conf-4"">4: Very confident</li>
      <li id=""conf-5"">5: Completely confident</li>
    </ul>","5","","","","","",""
"","","","","","html-keyboard-response","94","227455","0.0-8.0","276224","","4615","","","","","","","","","","Your average response time is  1827.175 ms You are doing great"," ","","","","","",""
"","","","","","html-button-response","95","466342","0.0-9.0","276224","","238876","","","","","","","","","","<p>You have successfully completed one block of the experiment. The next part of the experiment can be started in <span id=""clock"">1:00</span> <br>You can take a break for a minute or more if you like and Press continue when you are ready","0","","","","","",""
"","","","","","psychophysics","96","469089","0.0-10.0-0.0","276224","","2733","","","","","","","","","","","1","key","1","16.654545454545456","640","250","2"
"","","","","","html-keyboard-response","97","470853","0.0-10.0-1.0","276224","","1761","","","","","","","","","","
    <p>How confident are you in your response? Press the corresponding keys from 1 to 5 based on your experience</p>
    <ul id=""confidence-levels"">
      <li id=""conf-1"">1: Not at all confident</li>
      <li id=""conf-2"">2: Slightly confident</li>
      <li id=""conf-3"">3: Somewhat confident</li>
      <li id=""conf-4"">4: Very confident</li>
      <li id=""conf-5"">5: Completely confident</li>
    </ul>","5","","","","","",""
"","","","","","psychophysics","98","472674","0.0-10.0-2.0","276224","","1811","","","","","","","","","","","1","key","1","16.65137614678899","640","250","2"
"","","","","","html-keyboard-response","99","474797","0.0-10.0-3.0","276224","","2119","","","","","","","","","","
    <p>How confident are you in your response? Press the corresponding keys from 1 to 5 based on your experience</p>
    <ul id=""confidence-levels"">
      <li id=""conf-1"">1: Not at all confident</li>
      <li id=""conf-2"">2: Slightly confident</li>
      <li id=""conf-3"">3: Somewhat confident</li>
      <li id=""conf-4"">4: Very confident</li>
      <li id=""conf-5"">5: Completely confident</li>
    </ul>","5","","","","","",""
"","","","","","psychophysics","100","476631","0.0-10.0-4.0","276224","","1824","","","","","","","","","","","1","key","1","16.654545454545456","640","250","2"
"","","","","","html-keyboard-response","101","477187","0.0-10.0-5.0","276224","","553","","","","","","","","","","
    <p>How confident are you in your response? Press the corresponding keys from 1 to 5 based on your experience</p>
    <ul id=""confidence-levels"">
      <li id=""conf-1"">1: Not at all confident</li>
      <li id=""conf-2"">2: Slightly confident</li>
      <li id=""conf-3"">3: Somewhat confident</li>
      <li id=""conf-4"">4: Very confident</li>
      <li id=""conf-5"">5: Completely confident</li>
    </ul>","5","","","","","",""
"","","","","","psychophysics","102","479000","0.0-10.0-6.0","276224","","1810","","","","","","","","","","","1","key","1","16.65137614678899","640","250","2"
"","","","","","html-keyboard-response","103","480081","0.0-10.0-7.0","276224","","1079","","","","","","","","","","
    <p>How confident are you in your response? Press the corresponding keys from 1 to 5 based on your experience</p>
    <ul id=""confidence-levels"">
      <li id=""conf-1"">1: Not at all confident</li>
      <li id=""conf-2"">2: Slightly confident</li>
      <li id=""conf-3"">3: Somewhat confident</li>
      <li id=""conf-4"">4: Very confident</li>
      <li id=""conf-5"">5: Completely confident</li>
    </ul>","5","","","","","",""
"","","","","","psychophysics","104","481291","0.0-10.0-8.0","276224","","1206","","","","","","","","","","","1","key","1","16.65753424657534","640","250","2"
"","","","","","html-keyboard-response","105","482167","0.0-10.0-9.0","276224","","873","","","","","","","","","","
    <p>How confident are you in your response? Press the corresponding keys from 1 to 5 based on your experience</p>
    <ul id=""confidence-levels"">
      <li id=""conf-1"">1: Not at all confident</li>
      <li id=""conf-2"">2: Slightly confident</li>
      <li id=""conf-3"">3: Somewhat confident</li>
      <li id=""conf-4"">4: Very confident</li>
      <li id=""conf-5"">5: Completely confident</li>
    </ul>","5","","","","","",""
"","","","","","psychophysics","106","483309","0.0-10.0-10.0","276224","","1138","","","","","","","","","","","1","key","1","16.66176470588235","640","250","2"
"","","","","","html-keyboard-response","107","483725","0.0-10.0-11.0","276224","","412","","","","","","","","","","
    <p>How confident are you in your response? Press the corresponding keys from 1 to 5 based on your experience</p>
    <ul id=""confidence-levels"">
      <li id=""conf-1"">1: Not at all confident</li>
      <li id=""conf-2"">2: Slightly confident</li>
      <li id=""conf-3"">3: Somewhat confident</li>
      <li id=""conf-4"">4: Very confident</li>
      <li id=""conf-5"">5: Completely confident</li>
    </ul>","5","","","","","",""
"","","","","","psychophysics","108","484923","0.0-10.0-12.0","276224","","1195","","","","","","","","","","","1","key","1","16.65277777777778","640","250","2"
"","","","","","html-keyboard-response","109","485297","0.0-10.0-13.0","276224","","372","","","","","","","","","","
    <p>How confident are you in your response? Press the corresponding keys from 1 to 5 based on your experience</p>
    <ul id=""confidence-levels"">
      <li id=""conf-1"">1: Not at all confident</li>
      <li id=""conf-2"">2: Slightly confident</li>
      <li id=""conf-3"">3: Somewhat confident</li>
      <li id=""conf-4"">4: Very confident</li>
      <li id=""conf-5"">5: Completely confident</li>
    </ul>","5","","","","","",""
"","","","","","psychophysics","110","487044","0.0-10.0-14.0","276224","","1740","","","","","","","","","","","1","key","1","16.660194174757283","640","250","2"
"","","","","","html-keyboard-response","111","488075","0.0-10.0-15.0","276224","","1027","","","","","","","","","","
    <p>How confident are you in your response? Press the corresponding keys from 1 to 5 based on your experience</p>
    <ul id=""confidence-levels"">
      <li id=""conf-1"">1: Not at all confident</li>
      <li id=""conf-2"">2: Slightly confident</li>
      <li id=""conf-3"">3: Somewhat confident</li>
      <li id=""conf-4"">4: Very confident</li>
      <li id=""conf-5"">5: Completely confident</li>
    </ul>","5","","","","","",""
"","","","","","psychophysics","112","489250","0.0-10.0-16.0","276224","","1169","","","","","","","","","","","1","key","1","16.64788732394366","640","250","1"
"","","","","","html-keyboard-response","113","489622","0.0-10.0-17.0","276224","","370","","","","","","","","","","
    <p>How confident are you in your response? Press the corresponding keys from 1 to 5 based on your experience</p>
    <ul id=""confidence-levels"">
      <li id=""conf-1"">1: Not at all confident</li>
      <li id=""conf-2"">2: Slightly confident</li>
      <li id=""conf-3"">3: Somewhat confident</li>
      <li id=""conf-4"">4: Very confident</li>
      <li id=""conf-5"">5: Completely confident</li>
    </ul>","5","","","","","",""
"","","","","","psychophysics","114","490848","0.0-10.0-18.0","276224","","1221","","","","","","","","","","","1","key","1","16.64864864864865","640","250","1"
"","","","","","html-keyboard-response","115","491203","0.0-10.0-19.0","276224","","352","","","","","","","","","","
    <p>How confident are you in your response? Press the corresponding keys from 1 to 5 based on your experience</p>
    <ul id=""confidence-levels"">
      <li id=""conf-1"">1: Not at all confident</li>
      <li id=""conf-2"">2: Slightly confident</li>
      <li id=""conf-3"">3: Somewhat confident</li>
      <li id=""conf-4"">4: Very confident</li>
      <li id=""conf-5"">5: Completely confident</li>
    </ul>","5","","","","","",""
"","","","","","psychophysics","116","492315","0.0-10.0-20.0","276224","","1105","","","","","","","","","","","1","key","1","16.64179104477612","640","250","2"
"","","","","","html-keyboard-response","117","492626","0.0-10.0-21.0","276224","","308","","","","","","","","","","
    <p>How confident are you in your response? Press the corresponding keys from 1 to 5 based on your experience</p>
    <ul id=""confidence-levels"">
      <li id=""conf-1"">1: Not at all confident</li>
      <li id=""conf-2"">2: Slightly confident</li>
      <li id=""conf-3"">3: Somewhat confident</li>
      <li id=""conf-4"">4: Very confident</li>
      <li id=""conf-5"">5: Completely confident</li>
    </ul>","5","","","","","",""
"","","","","","psychophysics","118","494305","0.0-10.0-22.0","276224","","1669","","","","","","","","","","","1","key","1","16.65","640","250","1"
"","","","","","html-keyboard-response","119","494658","0.0-10.0-23.0","276224","","350","","","","","","","","","","
    <p>How confident are you in your response? Press the corresponding keys from 1 to 5 based on your experience</p>
    <ul id=""confidence-levels"">
      <li id=""conf-1"">1: Not at all confident</li>
      <li id=""conf-2"">2: Slightly confident</li>
      <li id=""conf-3"">3: Somewhat confident</li>
      <li id=""conf-4"">4: Very confident</li>
      <li id=""conf-5"">5: Completely confident</li>
    </ul>","5","","","","","",""
"","","","","","psychophysics","120","501157","0.0-10.0-24.0","276224","","6488","","","","","","","","","","","1","key","1","16.648717948717948","640","250","2"
"","","","","","html-keyboard-response","121","502296","0.0-10.0-25.0","276224","","1136","","","","","","","","","","
    <p>How confident are you in your response? Press the corresponding keys from 1 to 5 based on your experience</p>
    <ul id=""confidence-levels"">
      <li id=""conf-1"">1: Not at all confident</li>
      <li id=""conf-2"">2: Slightly confident</li>
      <li id=""conf-3"">3: Somewhat confident</li>
      <li id=""conf-4"">4: Very confident</li>
      <li id=""conf-5"">5: Completely confident</li>
    </ul>","4","","","","","",""
"","","","","","psychophysics","122","504920","0.0-10.0-26.0","276224","","2617","","","","","","","","","","","1","key","1","16.651898734177216","640","250","2"
"","","","","","html-keyboard-response","123","505715","0.0-10.0-27.0","276224","","793","","","","","","","","","","
    <p>How confident are you in your response? Press the corresponding keys from 1 to 5 based on your experience</p>
    <ul id=""confidence-levels"">
      <li id=""conf-1"">1: Not at all confident</li>
      <li id=""conf-2"">2: Slightly confident</li>
      <li id=""conf-3"">3: Somewhat confident</li>
      <li id=""conf-4"">4: Very confident</li>
      <li id=""conf-5"">5: Completely confident</li>
    </ul>","4","","","","","",""
"","","","","","psychophysics","124","507667","0.0-10.0-28.0","276224","","1940","","","","","","","","","","","1","key","1","16.64957264957265","640","250","2"
"","","","","","html-keyboard-response","125","508682","0.0-10.0-29.0","276224","","1013","","","","","","","","","","
    <p>How confident are you in your response? Press the corresponding keys from 1 to 5 based on your experience</p>
    <ul id=""confidence-levels"">
      <li id=""conf-1"">1: Not at all confident</li>
      <li id=""conf-2"">2: Slightly confident</li>
      <li id=""conf-3"">3: Somewhat confident</li>
      <li id=""conf-4"">4: Very confident</li>
      <li id=""conf-5"">5: Completely confident</li>
    </ul>","5","","","","","",""
"","","","","","psychophysics","126","510201","0.0-10.0-30.0","276224","","1515","","","","","","","","","","","1","key","1","16.64835164835165","640","250","1"
"","","","","","html-keyboard-response","127","511160","0.0-10.0-31.0","276224","","957","","","","","","","","","","
    <p>How confident are you in your response? Press the corresponding keys from 1 to 5 based on your experience</p>
    <ul id=""confidence-levels"">
      <li id=""conf-1"">1: Not at all confident</li>
      <li id=""conf-2"">2: Slightly confident</li>
      <li id=""conf-3"">3: Somewhat confident</li>
      <li id=""conf-4"">4: Very confident</li>
      <li id=""conf-5"">5: Completely confident</li>
    </ul>","5","","","","","",""
"","","","","","psychophysics","128","512511","0.0-10.0-32.0","276224","","1340","","","","","","","","","","","1","key","1","16.65432098765432","640","250","2"
"","","","","","html-keyboard-response","129","512985","0.0-10.0-33.0","276224","","469","","","","","","","","","","
    <p>How confident are you in your response? Press the corresponding keys from 1 to 5 based on your experience</p>
    <ul id=""confidence-levels"">
      <li id=""conf-1"">1: Not at all confident</li>
      <li id=""conf-2"">2: Slightly confident</li>
      <li id=""conf-3"">3: Somewhat confident</li>
      <li id=""conf-4"">4: Very confident</li>
      <li id=""conf-5"">5: Completely confident</li>
    </ul>","5","","","","","",""
"","","","","","psychophysics","130","515081","0.0-10.0-34.0","276224","","2085","","","","","","","","","","","1","key","1","16.650793650793652","640","250","2"
"","","","","","html-keyboard-response","131","515546","0.0-10.0-35.0","276224","","463","","","","","","","","","","
    <p>How confident are you in your response? Press the corresponding keys from 1 to 5 based on your experience</p>
    <ul id=""confidence-levels"">
      <li id=""conf-1"">1: Not at all confident</li>
      <li id=""conf-2"">2: Slightly confident</li>
      <li id=""conf-3"">3: Somewhat confident</li>
      <li id=""conf-4"">4: Very confident</li>
      <li id=""conf-5"">5: Completely confident</li>
    </ul>","4","","","","","",""
"","","","","","psychophysics","132","516628","0.0-10.0-36.0","276224","","1077","","","","","","","","","","","1","key","1","16.646153846153847","640","250","2"
"","","","","","html-keyboard-response","133","519655","0.0-10.0-37.0","276224","","3024","","","","","","","","","","
    <p>How confident are you in your response? Press the corresponding keys from 1 to 5 based on your experience</p>
    <ul id=""confidence-levels"">
      <li id=""conf-1"">1: Not at all confident</li>
      <li id=""conf-2"">2: Slightly confident</li>
      <li id=""conf-3"">3: Somewhat confident</li>
      <li id=""conf-4"">4: Very confident</li>
      <li id=""conf-5"">5: Completely confident</li>
    </ul>","4","","","","","",""
"","","","","","psychophysics","134","521019","0.0-10.0-38.0","276224","","1353","","","","","","","","","","","1","key","1","16.658536585365855","640","250","2"
"","","","","","html-keyboard-response","135","521551","0.0-10.0-39.0","276224","","529","","","","","","","","","","
    <p>How confident are you in your response? Press the corresponding keys from 1 to 5 based on your experience</p>
    <ul id=""confidence-levels"">
      <li id=""conf-1"">1: Not at all confident</li>
      <li id=""conf-2"">2: Slightly confident</li>
      <li id=""conf-3"">3: Somewhat confident</li>
      <li id=""conf-4"">4: Very confident</li>
      <li id=""conf-5"">5: Completely confident</li>
    </ul>","4","","","","","",""
"","","","","","psychophysics","136","522710","0.0-10.0-40.0","276224","","1153","","","","","","","","","","","1","key","1","16.652173913043477","640","250","2"
"","","","","","html-keyboard-response","137","523567","0.0-10.0-41.0","276224","","855","","","","","","","","","","
    <p>How confident are you in your response? Press the corresponding keys from 1 to 5 based on your experience</p>
    <ul id=""confidence-levels"">
      <li id=""conf-1"">1: Not at all confident</li>
      <li id=""conf-2"">2: Slightly confident</li>
      <li id=""conf-3"">3: Somewhat confident</li>
      <li id=""conf-4"">4: Very confident</li>
      <li id=""conf-5"">5: Completely confident</li>
    </ul>","5","","","","","",""
"","","","","","psychophysics","138","525483","0.0-10.0-42.0","276224","","1910","","","","","","","","","","","1","key","1","16.652173913043477","640","250","1"
"","","","","","html-keyboard-response","139","525823","0.0-10.0-43.0","276224","","337","","","","","","","","","","
    <p>How confident are you in your response? Press the corresponding keys from 1 to 5 based on your experience</p>
    <ul id=""confidence-levels"">
      <li id=""conf-1"">1: Not at all confident</li>
      <li id=""conf-2"">2: Slightly confident</li>
      <li id=""conf-3"">3: Somewhat confident</li>
      <li id=""conf-4"">4: Very confident</li>
      <li id=""conf-5"">5: Completely confident</li>
    </ul>","5","","","","","",""
"","","","","","psychophysics","140","527067","0.0-10.0-44.0","276224","","1231","","","","","","","","","","","1","key","1","16.653333333333332","640","250","1"
"","","","","","html-keyboard-response","141","527516","0.0-10.0-45.0","276224","","445","","","","","","","","","","
    <p>How confident are you in your response? Press the corresponding keys from 1 to 5 based on your experience</p>
    <ul id=""confidence-levels"">
      <li id=""conf-1"">1: Not at all confident</li>
      <li id=""conf-2"">2: Slightly confident</li>
      <li id=""conf-3"">3: Somewhat confident</li>
      <li id=""conf-4"">4: Very confident</li>
      <li id=""conf-5"">5: Completely confident</li>
    </ul>","5","","","","","",""
"","","","","","psychophysics","142","528665","0.0-10.0-46.0","276224","","1138","","","","","","","","","","","1","key","1","16.652173913043477","640","250","2"
"","","","","","html-keyboard-response","143","529523","0.0-10.0-47.0","276224","","855","","","","","","","","","","
    <p>How confident are you in your response? Press the corresponding keys from 1 to 5 based on your experience</p>
    <ul id=""confidence-levels"">
      <li id=""conf-1"">1: Not at all confident</li>
      <li id=""conf-2"">2: Slightly confident</li>
      <li id=""conf-3"">3: Somewhat confident</li>
      <li id=""conf-4"">4: Very confident</li>
      <li id=""conf-5"">5: Completely confident</li>
    </ul>","5","","","","","",""
"","","","","","psychophysics","144","530815","0.0-10.0-48.0","276224","","1281","","","","","","","","","","","1","key","1","16.649350649350648","640","250","2"
"","","","","","html-keyboard-response","145","531109","0.0-10.0-49.0","276224","","291","","","","","","","","","","
    <p>How confident are you in your response? Press the corresponding keys from 1 to 5 based on your experience</p>
    <ul id=""confidence-levels"">
      <li id=""conf-1"">1: Not at all confident</li>
      <li id=""conf-2"">2: Slightly confident</li>
      <li id=""conf-3"">3: Somewhat confident</li>
      <li id=""conf-4"">4: Very confident</li>
      <li id=""conf-5"">5: Completely confident</li>
    </ul>","5","","","","","",""
"","","","","","psychophysics","146","532477","0.0-10.0-50.0","276224","","1358","","","","","","","","","","","1","key","1","16.646341463414632","640","250","2"
"","","","","","html-keyboard-response","147","533304","0.0-10.0-51.0","276224","","824","","","","","","","","","","
    <p>How confident are you in your response? Press the corresponding keys from 1 to 5 based on your experience</p>
    <ul id=""confidence-levels"">
      <li id=""conf-1"">1: Not at all confident</li>
      <li id=""conf-2"">2: Slightly confident</li>
      <li id=""conf-3"">3: Somewhat confident</li>
      <li id=""conf-4"">4: Very confident</li>
      <li id=""conf-5"">5: Completely confident</li>
    </ul>","5","","","","","",""
"","","","","","psychophysics","148","534567","0.0-10.0-52.0","276224","","1259","","","","","","","","","","","1","key","1","16.653333333333332","640","250","2"
"","","","","","html-keyboard-response","149","535214","0.0-10.0-53.0","276224","","643","","","","","","","","","","
    <p>How confident are you in your response? Press the corresponding keys from 1 to 5 based on your experience</p>
    <ul id=""confidence-levels"">
      <li id=""conf-1"">1: Not at all confident</li>
      <li id=""conf-2"">2: Slightly confident</li>
      <li id=""conf-3"">3: Somewhat confident</li>
      <li id=""conf-4"">4: Very confident</li>
      <li id=""conf-5"">5: Completely confident</li>
    </ul>","5","","","","","",""
"","","","","","psychophysics","150","536389","0.0-10.0-54.0","276224","","1169","","","","","","","","","","","1","key","1","16.64788732394366","640","250","1"
"","","","","","html-keyboard-response","151","537182","0.0-10.0-55.0","276224","","791","","","","","","","","","","
    <p>How confident are you in your response? Press the corresponding keys from 1 to 5 based on your experience</p>
    <ul id=""confidence-levels"">
      <li id=""conf-1"">1: Not at all confident</li>
      <li id=""conf-2"">2: Slightly confident</li>
      <li id=""conf-3"">3: Somewhat confident</li>
      <li id=""conf-4"">4: Very confident</li>
      <li id=""conf-5"">5: Completely confident</li>
    </ul>","5","","","","","",""
"","","","","","psychophysics","152","538261","0.0-10.0-56.0","276224","","1074","","","","","","","","","","","1","key","1","16.90625","640","250","2"
"","","","","","html-keyboard-response","153","538686","0.0-10.0-57.0","276224","","423","","","","","","","","","","
    <p>How confident are you in your response? Press the corresponding keys from 1 to 5 based on your experience</p>
    <ul id=""confidence-levels"">
      <li id=""conf-1"">1: Not at all confident</li>
      <li id=""conf-2"">2: Slightly confident</li>
      <li id=""conf-3"">3: Somewhat confident</li>
      <li id=""conf-4"">4: Very confident</li>
      <li id=""conf-5"">5: Completely confident</li>
    </ul>","5","","","","","",""
"","","","","","psychophysics","154","539755","0.0-10.0-58.0","276224","","1062","","","","","","","","","","","1","key","1","16.65625","640","250","1"
"","","","","","html-keyboard-response","155","540087","0.0-10.0-59.0","276224","","330","","","","","","","","","","
    <p>How confident are you in your response? Press the corresponding keys from 1 to 5 based on your experience</p>
    <ul id=""confidence-levels"">
      <li id=""conf-1"">1: Not at all confident</li>
      <li id=""conf-2"">2: Slightly confident</li>
      <li id=""conf-3"">3: Somewhat confident</li>
      <li id=""conf-4"">4: Very confident</li>
      <li id=""conf-5"">5: Completely confident</li>
    </ul>","5","","","","","",""
"","","","","","psychophysics","156","541100","0.0-10.0-60.0","276224","","1007","","","","","","","","","","","1","key","1","16.639344262295083","640","250","1"
"","","","","","html-keyboard-response","157","541541","0.0-10.0-61.0","276224","","438","","","","","","","","","","
    <p>How confident are you in your response? Press the corresponding keys from 1 to 5 based on your experience</p>
    <ul id=""confidence-levels"">
      <li id=""conf-1"">1: Not at all confident</li>
      <li id=""conf-2"">2: Slightly confident</li>
      <li id=""conf-3"">3: Somewhat confident</li>
      <li id=""conf-4"">4: Very confident</li>
      <li id=""conf-5"">5: Completely confident</li>
    </ul>","5","","","","","",""
"","","","","","psychophysics","158","542567","0.0-10.0-62.0","276224","","1020","","","","","","","","","","","1","key","1","16.65573770491803","640","250","2"
"","","","","","html-keyboard-response","159","542884","0.0-10.0-63.0","276224","","313","","","","","","","","","","
    <p>How confident are you in your response? Press the corresponding keys from 1 to 5 based on your experience</p>
    <ul id=""confidence-levels"">
      <li id=""conf-1"">1: Not at all confident</li>
      <li id=""conf-2"">2: Slightly confident</li>
      <li id=""conf-3"">3: Somewhat confident</li>
      <li id=""conf-4"">4: Very confident</li>
      <li id=""conf-5"">5: Completely confident</li>
    </ul>","5","","","","","",""
"","","","","","psychophysics","160","543883","0.0-10.0-64.0","276224","","994","","","","","","","","","","","1","key","1","16.65","640","250","1"
"","","","","","html-keyboard-response","161","544246","0.0-10.0-65.0","276224","","360","","","","","","","","","","
    <p>How confident are you in your response? Press the corresponding keys from 1 to 5 based on your experience</p>
    <ul id=""confidence-levels"">
      <li id=""conf-1"">1: Not at all confident</li>
      <li id=""conf-2"">2: Slightly confident</li>
      <li id=""conf-3"">3: Somewhat confident</li>
      <li id=""conf-4"">4: Very confident</li>
      <li id=""conf-5"">5: Completely confident</li>
    </ul>","5","","","","","",""
"","","","","","psychophysics","162","545256","0.0-10.0-66.0","276224","","998","","","","","","","","","","","1","key","1","16.65","640","250","1"
"","","","","","html-keyboard-response","163","545547","0.0-10.0-67.0","276224","","286","","","","","","","","","","
    <p>How confident are you in your response? Press the corresponding keys from 1 to 5 based on your experience</p>
    <ul id=""confidence-levels"">
      <li id=""conf-1"">1: Not at all confident</li>
      <li id=""conf-2"">2: Slightly confident</li>
      <li id=""conf-3"">3: Somewhat confident</li>
      <li id=""conf-4"">4: Very confident</li>
      <li id=""conf-5"">5: Completely confident</li>
    </ul>","5","","","","","",""
"","","","","","psychophysics","164","546911","0.0-10.0-68.0","276224","","1353","","","","","","","","","","","1","key","1","16.65432098765432","640","250","2"
"","","","","","html-keyboard-response","165","547161","0.0-10.0-69.0","276224","","248","","","","","","","","","","
    <p>How confident are you in your response? Press the corresponding keys from 1 to 5 based on your experience</p>
    <ul id=""confidence-levels"">
      <li id=""conf-1"">1: Not at all confident</li>
      <li id=""conf-2"">2: Slightly confident</li>
      <li id=""conf-3"">3: Somewhat confident</li>
      <li id=""conf-4"">4: Very confident</li>
      <li id=""conf-5"">5: Completely confident</li>
    </ul>","5","","","","","",""
"","","","","","psychophysics","166","548099","0.0-10.0-70.0","276224","","928","","","","","","","","","","","1","key","1","16.660714285714285","640","250","2"
"","","","","","html-keyboard-response","167","548423","0.0-10.0-71.0","276224","","322","","","","","","","","","","
    <p>How confident are you in your response? Press the corresponding keys from 1 to 5 based on your experience</p>
    <ul id=""confidence-levels"">
      <li id=""conf-1"">1: Not at all confident</li>
      <li id=""conf-2"">2: Slightly confident</li>
      <li id=""conf-3"">3: Somewhat confident</li>
      <li id=""conf-4"">4: Very confident</li>
      <li id=""conf-5"">5: Completely confident</li>
    </ul>","5","","","","","",""
"","","","","","psychophysics","168","549300","0.0-10.0-72.0","276224","","872","","","","","","","","","","","1","key","1","16.653846153846153","640","250","1"
"","","","","","html-keyboard-response","169","549614","0.0-10.0-73.0","276224","","311","","","","","","","","","","
    <p>How confident are you in your response? Press the corresponding keys from 1 to 5 based on your experience</p>
    <ul id=""confidence-levels"">
      <li id=""conf-1"">1: Not at all confident</li>
      <li id=""conf-2"">2: Slightly confident</li>
      <li id=""conf-3"">3: Somewhat confident</li>
      <li id=""conf-4"">4: Very confident</li>
      <li id=""conf-5"">5: Completely confident</li>
    </ul>","5","","","","","",""
"","","","","","psychophysics","170","550582","0.0-10.0-74.0","276224","","963","","","","","","","","","","","1","key","1","16.655172413793103","640","250","1"
"","","","","","html-keyboard-response","171","550877","0.0-10.0-75.0","276224","","291","","","","","","","","","","
    <p>How confident are you in your response? Press the corresponding keys from 1 to 5 based on your experience</p>
    <ul id=""confidence-levels"">
      <li id=""conf-1"">1: Not at all confident</li>
      <li id=""conf-2"">2: Slightly confident</li>
      <li id=""conf-3"">3: Somewhat confident</li>
      <li id=""conf-4"">4: Very confident</li>
      <li id=""conf-5"">5: Completely confident</li>
    </ul>","5","","","","","",""
"","","","","","psychophysics","172","551857","0.0-10.0-76.0","276224","","976","","","","","","","","","","","1","key","1","16.64406779661017","640","250","2"
"","","","","","html-keyboard-response","173","552126","0.0-10.0-77.0","276224","","265","","","","","","","","","","
    <p>How confident are you in your response? Press the corresponding keys from 1 to 5 based on your experience</p>
    <ul id=""confidence-levels"">
      <li id=""conf-1"">1: Not at all confident</li>
      <li id=""conf-2"">2: Slightly confident</li>
      <li id=""conf-3"">3: Somewhat confident</li>
      <li id=""conf-4"">4: Very confident</li>
      <li id=""conf-5"">5: Completely confident</li>
    </ul>","5","","","","","",""
"","","","","","html-keyboard-response","174","554305","0.0-11.0","276224","","2175","","","","","","","","","","Your average response time is 992.346 ms You are doing great"," ","","","","","",""
"","","","","","html-button-response","175","718775","0.0-12.0","276224","","164464","","","","","","","","","","<p>You have successfully completed one block of the experiment. The next part of the experiment can be started in <span id=""clock"">1:00</span> <br>You can take a break for a minute or more if you like and Press continue when you are ready","0","","","","","",""
"","","","","","psychophysics","176","721969","0.0-13.0-0.0","276224","","3188","","","","","","","","","","","1","key","1","16.65625","640","250","1"
"","","","","","html-keyboard-response","177","722264","0.0-13.0-1.0","276224","","293","","","","","","","","","","
    <p>How confident are you in your response? Press the corresponding keys from 1 to 5 based on your experience</p>
    <ul id=""confidence-levels"">
      <li id=""conf-1"">1: Not at all confident</li>
      <li id=""conf-2"">2: Slightly confident</li>
      <li id=""conf-3"">3: Somewhat confident</li>
      <li id=""conf-4"">4: Very confident</li>
      <li id=""conf-5"">5: Completely confident</li>
    </ul>","5","","","","","",""
"","","","","","psychophysics","178","723295","0.0-13.0-2.0","276224","","1015","","","","","","","","","","","1","key","1","16.65573770491803","640","250","1"
"","","","","","html-keyboard-response","179","724200","0.0-13.0-3.0","276224","","902","","","","","","","","","","
    <p>How confident are you in your response? Press the corresponding keys from 1 to 5 based on your experience</p>
    <ul id=""confidence-levels"">
      <li id=""conf-1"">1: Not at all confident</li>
      <li id=""conf-2"">2: Slightly confident</li>
      <li id=""conf-3"">3: Somewhat confident</li>
      <li id=""conf-4"">4: Very confident</li>
      <li id=""conf-5"">5: Completely confident</li>
    </ul>","5","","","","","",""
"","","","","","psychophysics","180","725130","0.0-13.0-4.0","276224","","921","","","","","","","","","","","1","key","1","16.642857142857142","640","250","1"
"","","","","","html-keyboard-response","181","725695","0.0-13.0-5.0","276224","","563","","","","","","","","","","
    <p>How confident are you in your response? Press the corresponding keys from 1 to 5 based on your experience</p>
    <ul id=""confidence-levels"">
      <li id=""conf-1"">1: Not at all confident</li>
      <li id=""conf-2"">2: Slightly confident</li>
      <li id=""conf-3"">3: Somewhat confident</li>
      <li id=""conf-4"">4: Very confident</li>
      <li id=""conf-5"">5: Completely confident</li>
    </ul>","5","","","","","",""
"","","","","","psychophysics","182","726625","0.0-13.0-6.0","276224","","918","","","","","","","","","","","1","key","1","16.636363636363637","640","250","1"
"","","","","","html-keyboard-response","183","726915","0.0-13.0-7.0","276224","","286","","","","","","","","","","
    <p>How confident are you in your response? Press the corresponding keys from 1 to 5 based on your experience</p>
    <ul id=""confidence-levels"">
      <li id=""conf-1"">1: Not at all confident</li>
      <li id=""conf-2"">2: Slightly confident</li>
      <li id=""conf-3"">3: Somewhat confident</li>
      <li id=""conf-4"">4: Very confident</li>
      <li id=""conf-5"">5: Completely confident</li>
    </ul>","5","","","","","",""
"","","","","","psychophysics","184","727826","0.0-13.0-8.0","276224","","901","","","","","","","","","","","1","key","1","16.64814814814815","640","250","1"
"","","","","","html-keyboard-response","185","728177","0.0-13.0-9.0","276224","","347","","","","","","","","","","
    <p>How confident are you in your response? Press the corresponding keys from 1 to 5 based on your experience</p>
    <ul id=""confidence-levels"">
      <li id=""conf-1"">1: Not at all confident</li>
      <li id=""conf-2"">2: Slightly confident</li>
      <li id=""conf-3"">3: Somewhat confident</li>
      <li id=""conf-4"">4: Very confident</li>
      <li id=""conf-5"">5: Completely confident</li>
    </ul>","5","","","","","",""
"","","","","","psychophysics","186","729095","0.0-13.0-10.0","276224","","907","","","","","","","","","","","1","key","1","16.654545454545456","640","250","1"
"","","","","","html-keyboard-response","187","729651","0.0-13.0-11.0","276224","","553","","","","","","","","","","
    <p>How confident are you in your response? Press the corresponding keys from 1 to 5 based on your experience</p>
    <ul id=""confidence-levels"">
      <li id=""conf-1"">1: Not at all confident</li>
      <li id=""conf-2"">2: Slightly confident</li>
      <li id=""conf-3"">3: Somewhat confident</li>
      <li id=""conf-4"">4: Very confident</li>
      <li id=""conf-5"">5: Completely confident</li>
    </ul>","5","","","","","",""
"","","","","","psychophysics","188","730759","0.0-13.0-12.0","276224","","1103","","","","","","","","","","","1","key","1","16.65671641791045","640","250","1"
"","","","","","html-keyboard-response","189","731403","0.0-13.0-13.0","276224","","641","","","","","","","","","","
    <p>How confident are you in your response? Press the corresponding keys from 1 to 5 based on your experience</p>
    <ul id=""confidence-levels"">
      <li id=""conf-1"">1: Not at all confident</li>
      <li id=""conf-2"">2: Slightly confident</li>
      <li id=""conf-3"">3: Somewhat confident</li>
      <li id=""conf-4"">4: Very confident</li>
      <li id=""conf-5"">5: Completely confident</li>
    </ul>","5","","","","","",""
"","","","","","psychophysics","190","732527","0.0-13.0-14.0","276224","","1119","","","","","","","","","","","1","key","1","16.64179104477612","640","250","1"
"","","","","","html-keyboard-response","191","733024","0.0-13.0-15.0","276224","","494","","","","","","","","","","
    <p>How confident are you in your response? Press the corresponding keys from 1 to 5 based on your experience</p>
    <ul id=""confidence-levels"">
      <li id=""conf-1"">1: Not at all confident</li>
      <li id=""conf-2"">2: Slightly confident</li>
      <li id=""conf-3"">3: Somewhat confident</li>
      <li id=""conf-4"">4: Very confident</li>
      <li id=""conf-5"">5: Completely confident</li>
    </ul>","5","","","","","",""
"","","","","","psychophysics","192","734590","0.0-13.0-16.0","276224","","1562","","","","","","","","","","","1","key","1","16.648936170212767","640","250","1"
"","","","","","html-keyboard-response","193","734904","0.0-13.0-17.0","276224","","310","","","","","","","","","","
    <p>How confident are you in your response? Press the corresponding keys from 1 to 5 based on your experience</p>
    <ul id=""confidence-levels"">
      <li id=""conf-1"">1: Not at all confident</li>
      <li id=""conf-2"">2: Slightly confident</li>
      <li id=""conf-3"">3: Somewhat confident</li>
      <li id=""conf-4"">4: Very confident</li>
      <li id=""conf-5"">5: Completely confident</li>
    </ul>","5","","","","","",""
"","","","","","psychophysics","194","736060","0.0-13.0-18.0","276224","","1146","","","","","","","","","","","1","key","1","16.652173913043477","640","250","1"
"","","","","","html-keyboard-response","195","736380","0.0-13.0-19.0","276224","","315","","","","","","","","","","
    <p>How confident are you in your response? Press the corresponding keys from 1 to 5 based on your experience</p>
    <ul id=""confidence-levels"">
      <li id=""conf-1"">1: Not at all confident</li>
      <li id=""conf-2"">2: Slightly confident</li>
      <li id=""conf-3"">3: Somewhat confident</li>
      <li id=""conf-4"">4: Very confident</li>
      <li id=""conf-5"">5: Completely confident</li>
    </ul>","5","","","","","",""
"","","","","","psychophysics","196","737363","0.0-13.0-20.0","276224","","979","","","","","","","","","","","1","key","1","16.67241379310345","640","250","1"
"","","","","","html-keyboard-response","197","737857","0.0-13.0-21.0","276224","","491","","","","","","","","","","
    <p>How confident are you in your response? Press the corresponding keys from 1 to 5 based on your experience</p>
    <ul id=""confidence-levels"">
      <li id=""conf-1"">1: Not at all confident</li>
      <li id=""conf-2"">2: Slightly confident</li>
      <li id=""conf-3"">3: Somewhat confident</li>
      <li id=""conf-4"">4: Very confident</li>
      <li id=""conf-5"">5: Completely confident</li>
    </ul>","5","","","","","",""
"","","","","","psychophysics","198","738988","0.0-13.0-22.0","276224","","1123","","","","","","","","","","","1","key","1","16.647058823529413","640","250","1"
"","","","","","html-keyboard-response","199","739393","0.0-13.0-23.0","276224","","402","","","","","","","","","","
    <p>How confident are you in your response? Press the corresponding keys from 1 to 5 based on your experience</p>
    <ul id=""confidence-levels"">
      <li id=""conf-1"">1: Not at all confident</li>
      <li id=""conf-2"">2: Slightly confident</li>
      <li id=""conf-3"">3: Somewhat confident</li>
      <li id=""conf-4"">4: Very confident</li>
      <li id=""conf-5"">5: Completely confident</li>
    </ul>","5","","","","","",""
"","","","","","psychophysics","200","740473","0.0-13.0-24.0","276224","","1070","","","","","","","","","","","1","key","1","16.90625","640","250","1"
"","","","","","html-keyboard-response","201","740846","0.0-13.0-25.0","276224","","370","","","","","","","","","","
    <p>How confident are you in your response? Press the corresponding keys from 1 to 5 based on your experience</p>
    <ul id=""confidence-levels"">
      <li id=""conf-1"">1: Not at all confident</li>
      <li id=""conf-2"">2: Slightly confident</li>
      <li id=""conf-3"">3: Somewhat confident</li>
      <li id=""conf-4"">4: Very confident</li>
      <li id=""conf-5"">5: Completely confident</li>
    </ul>","5","","","","","",""
"","","","","","psychophysics","202","743907","0.0-13.0-26.0","276224","","3056","","","","","","","","","","","1","key","1","16.650273224043715","640","250","1"
"","","","","","html-keyboard-response","203","744331","0.0-13.0-27.0","276224","","421","","","","","","","","","","
    <p>How confident are you in your response? Press the corresponding keys from 1 to 5 based on your experience</p>
    <ul id=""confidence-levels"">
      <li id=""conf-1"">1: Not at all confident</li>
      <li id=""conf-2"">2: Slightly confident</li>
      <li id=""conf-3"">3: Somewhat confident</li>
      <li id=""conf-4"">4: Very confident</li>
      <li id=""conf-5"">5: Completely confident</li>
    </ul>","4","","","","","",""
"","","","","","psychophysics","204","745536","0.0-13.0-28.0","276224","","1192","","","","","","","","","","","1","key","1","16.65277777777778","640","250","1"
"","","","","","html-keyboard-response","205","746959","0.0-13.0-29.0","276224","","1418","","","","","","","","","","
    <p>How confident are you in your response? Press the corresponding keys from 1 to 5 based on your experience</p>
    <ul id=""confidence-levels"">
      <li id=""conf-1"">1: Not at all confident</li>
      <li id=""conf-2"">2: Slightly confident</li>
      <li id=""conf-3"">3: Somewhat confident</li>
      <li id=""conf-4"">4: Very confident</li>
      <li id=""conf-5"">5: Completely confident</li>
    </ul>","5","","","","","",""
"","","","","","psychophysics","206","747992","0.0-13.0-30.0","276224","","1028","","","","","","","","","","","1","key","1","16.64516129032258","640","250","1"
"","","","","","html-keyboard-response","207","748272","0.0-13.0-31.0","276224","","276","","","","","","","","","","
    <p>How confident are you in your response? Press the corresponding keys from 1 to 5 based on your experience</p>
    <ul id=""confidence-levels"">
      <li id=""conf-1"">1: Not at all confident</li>
      <li id=""conf-2"">2: Slightly confident</li>
      <li id=""conf-3"">3: Somewhat confident</li>
      <li id=""conf-4"">4: Very confident</li>
      <li id=""conf-5"">5: Completely confident</li>
    </ul>","5","","","","","",""
"","","","","","psychophysics","208","749765","0.0-13.0-32.0","276224","","1482","","","","","","","","","","","1","key","1","16.640449438202246","640","250","1"
"","","","","","html-keyboard-response","209","750322","0.0-13.0-33.0","276224","","553","","","","","","","","","","
    <p>How confident are you in your response? Press the corresponding keys from 1 to 5 based on your experience</p>
    <ul id=""confidence-levels"">
      <li id=""conf-1"">1: Not at all confident</li>
      <li id=""conf-2"">2: Slightly confident</li>
      <li id=""conf-3"">3: Somewhat confident</li>
      <li id=""conf-4"">4: Very confident</li>
      <li id=""conf-5"">5: Completely confident</li>
    </ul>","5","","","","","",""
"","","","","","psychophysics","210","751445","0.0-13.0-34.0","276224","","1119","","","","","","","","","","","1","key","1","16.65671641791045","640","250","1"
"","","","","","html-keyboard-response","211","752435","0.0-13.0-35.0","276224","","987","","","","","","","","","","
    <p>How confident are you in your response? Press the corresponding keys from 1 to 5 based on your experience</p>
    <ul id=""confidence-levels"">
      <li id=""conf-1"">1: Not at all confident</li>
      <li id=""conf-2"">2: Slightly confident</li>
      <li id=""conf-3"">3: Somewhat confident</li>
      <li id=""conf-4"">4: Very confident</li>
      <li id=""conf-5"">5: Completely confident</li>
    </ul>","5","","","","","",""
"","","","","","psychophysics","212","753719","0.0-13.0-36.0","276224","","1278","","","","","","","","","","","1","key","1","16.649350649350648","640","250","1"
"","","","","","html-keyboard-response","213","754120","0.0-13.0-37.0","276224","","397","","","","","","","","","","
    <p>How confident are you in your response? Press the corresponding keys from 1 to 5 based on your experience</p>
    <ul id=""confidence-levels"">
      <li id=""conf-1"">1: Not at all confident</li>
      <li id=""conf-2"">2: Slightly confident</li>
      <li id=""conf-3"">3: Somewhat confident</li>
      <li id=""conf-4"">4: Very confident</li>
      <li id=""conf-5"">5: Completely confident</li>
    </ul>","5","","","","","",""
"","","","","","psychophysics","214","756053","0.0-13.0-38.0","276224","","1923","","","","","","","","","","","1","key","1","16.646551724137932","640","250","1"
"","","","","","html-keyboard-response","215","756680","0.0-13.0-39.0","276224","","623","","","","","","","","","","
    <p>How confident are you in your response? Press the corresponding keys from 1 to 5 based on your experience</p>
    <ul id=""confidence-levels"">
      <li id=""conf-1"">1: Not at all confident</li>
      <li id=""conf-2"">2: Slightly confident</li>
      <li id=""conf-3"">3: Somewhat confident</li>
      <li id=""conf-4"">4: Very confident</li>
      <li id=""conf-5"">5: Completely confident</li>
    </ul>","5","","","","","",""
"","","","","","psychophysics","216","758033","0.0-13.0-40.0","276224","","1347","","","","","","","","","","","1","key","1","16.65432098765432","640","250","1"
"","","","","","html-keyboard-response","217","758595","0.0-13.0-41.0","276224","","558","","","","","","","","","","
    <p>How confident are you in your response? Press the corresponding keys from 1 to 5 based on your experience</p>
    <ul id=""confidence-levels"">
      <li id=""conf-1"">1: Not at all confident</li>
      <li id=""conf-2"">2: Slightly confident</li>
      <li id=""conf-3"">3: Somewhat confident</li>
      <li id=""conf-4"">4: Very confident</li>
      <li id=""conf-5"">5: Completely confident</li>
    </ul>","5","","","","","",""
"","","","","","psychophysics","218","759685","0.0-13.0-42.0","276224","","1086","","","","","","","","","","","1","key","1","16.661538461538463","640","250","1"
"","","","","","html-keyboard-response","219","760309","0.0-13.0-43.0","276224","","622","","","","","","","","","","
    <p>How confident are you in your response? Press the corresponding keys from 1 to 5 based on your experience</p>
    <ul id=""confidence-levels"">
      <li id=""conf-1"">1: Not at all confident</li>
      <li id=""conf-2"">2: Slightly confident</li>
      <li id=""conf-3"">3: Somewhat confident</li>
      <li id=""conf-4"">4: Very confident</li>
      <li id=""conf-5"">5: Completely confident</li>
    </ul>","5","","","","","",""
"","","","","","psychophysics","220","761312","0.0-13.0-44.0","276224","","1000","","","","","","","","","","","1","key","1","16.65","640","250","1"
"","","","","","html-keyboard-response","221","761925","0.0-13.0-45.0","276224","","610","","","","","","","","","","
    <p>How confident are you in your response? Press the corresponding keys from 1 to 5 based on your experience</p>
    <ul id=""confidence-levels"">
      <li id=""conf-1"">1: Not at all confident</li>
      <li id=""conf-2"">2: Slightly confident</li>
      <li id=""conf-3"">3: Somewhat confident</li>
      <li id=""conf-4"">4: Very confident</li>
      <li id=""conf-5"">5: Completely confident</li>
    </ul>","5","","","","","",""
"","","","","","psychophysics","222","764442","0.0-13.0-46.0","276224","","2511","","","","","","","","","","","1","key","1","16.642384105960264","640","250","1"
"","","","","","html-keyboard-response","223","764833","0.0-13.0-47.0","276224","","387","","","","","","","","","","
    <p>How confident are you in your response? Press the corresponding keys from 1 to 5 based on your experience</p>
    <ul id=""confidence-levels"">
      <li id=""conf-1"">1: Not at all confident</li>
      <li id=""conf-2"">2: Slightly confident</li>
      <li id=""conf-3"">3: Somewhat confident</li>
      <li id=""conf-4"">4: Very confident</li>
      <li id=""conf-5"">5: Completely confident</li>
    </ul>","5","","","","","",""
"","","","","","psychophysics","224","766624","0.0-13.0-48.0","276224","","1786","","","","","","","","","","","1","key","1","16.64814814814815","640","250","1"
"","","","","","html-keyboard-response","225","768348","0.0-13.0-49.0","276224","","1720","","","","","","","","","","
    <p>How confident are you in your response? Press the corresponding keys from 1 to 5 based on your experience</p>
    <ul id=""confidence-levels"">
      <li id=""conf-1"">1: Not at all confident</li>
      <li id=""conf-2"">2: Slightly confident</li>
      <li id=""conf-3"">3: Somewhat confident</li>
      <li id=""conf-4"">4: Very confident</li>
      <li id=""conf-5"">5: Completely confident</li>
    </ul>","5","","","","","",""
"","","","","","psychophysics","226","769708","0.0-13.0-50.0","276224","","1349","","","","","","","","","","","1","key","1","16.658536585365855","640","250","1"
"","","","","","html-keyboard-response","227","770324","0.0-13.0-51.0","276224","","612","","","","","","","","","","
    <p>How confident are you in your response? Press the corresponding keys from 1 to 5 based on your experience</p>
    <ul id=""confidence-levels"">
      <li id=""conf-1"">1: Not at all confident</li>
      <li id=""conf-2"">2: Slightly confident</li>
      <li id=""conf-3"">3: Somewhat confident</li>
      <li id=""conf-4"">4: Very confident</li>
      <li id=""conf-5"">5: Completely confident</li>
    </ul>","5","","","","","",""
"","","","","","psychophysics","228","771392","0.0-13.0-52.0","276224","","1065","","","","","","","","","","","1","key","1","16.640625","640","250","1"
"","","","","","html-keyboard-response","229","771736","0.0-13.0-53.0","276224","","342","","","","","","","","","","
    <p>How confident are you in your response? Press the corresponding keys from 1 to 5 based on your experience</p>
    <ul id=""confidence-levels"">
      <li id=""conf-1"">1: Not at all confident</li>
      <li id=""conf-2"">2: Slightly confident</li>
      <li id=""conf-3"">3: Somewhat confident</li>
      <li id=""conf-4"">4: Very confident</li>
      <li id=""conf-5"">5: Completely confident</li>
    </ul>","5","","","","","",""
"","","","","","psychophysics","230","772805","0.0-13.0-54.0","276224","","1064","","","","","","","","","","","1","key","1","16.640625","640","250","1"
"","","","","","html-keyboard-response","231","773210","0.0-13.0-55.0","276224","","402","","","","","","","","","","
    <p>How confident are you in your response? Press the corresponding keys from 1 to 5 based on your experience</p>
    <ul id=""confidence-levels"">
      <li id=""conf-1"">1: Not at all confident</li>
      <li id=""conf-2"">2: Slightly confident</li>
      <li id=""conf-3"">3: Somewhat confident</li>
      <li id=""conf-4"">4: Very confident</li>
      <li id=""conf-5"">5: Completely confident</li>
    </ul>","5","","","","","",""
"","","","","","psychophysics","232","774386","0.0-13.0-56.0","276224","","1172","","","","","","","","","","","1","key","1","16.64788732394366","640","250","1"
"","","","","","html-keyboard-response","233","774683","0.0-13.0-57.0","276224","","294","","","","","","","","","","
    <p>How confident are you in your response? Press the corresponding keys from 1 to 5 based on your experience</p>
    <ul id=""confidence-levels"">
      <li id=""conf-1"">1: Not at all confident</li>
      <li id=""conf-2"">2: Slightly confident</li>
      <li id=""conf-3"">3: Somewhat confident</li>
      <li id=""conf-4"">4: Very confident</li>
      <li id=""conf-5"">5: Completely confident</li>
    </ul>","5","","","","","",""
"","","","","","psychophysics","234","775715","0.0-13.0-58.0","276224","","1028","","","","","","","","","","","1","key","1","16.661290322580644","640","250","1"
"","","","","","html-keyboard-response","235","776046","0.0-13.0-59.0","276224","","327","","","","","","","","","","
    <p>How confident are you in your response? Press the corresponding keys from 1 to 5 based on your experience</p>
    <ul id=""confidence-levels"">
      <li id=""conf-1"">1: Not at all confident</li>
      <li id=""conf-2"">2: Slightly confident</li>
      <li id=""conf-3"">3: Somewhat confident</li>
      <li id=""conf-4"">4: Very confident</li>
      <li id=""conf-5"">5: Completely confident</li>
    </ul>","5","","","","","",""
"","","","","","psychophysics","236","777493","0.0-13.0-60.0","276224","","1437","","","","","","","","","","","1","key","1","16.63953488372093","640","250","1"
"","","","","","html-keyboard-response","237","777835","0.0-13.0-61.0","276224","","339","","","","","","","","","","
    <p>How confident are you in your response? Press the corresponding keys from 1 to 5 based on your experience</p>
    <ul id=""confidence-levels"">
      <li id=""conf-1"">1: Not at all confident</li>
      <li id=""conf-2"">2: Slightly confident</li>
      <li id=""conf-3"">3: Somewhat confident</li>
      <li id=""conf-4"">4: Very confident</li>
      <li id=""conf-5"">5: Completely confident</li>
    </ul>","5","","","","","",""
"","","","","","psychophysics","238","778937","0.0-13.0-62.0","276224","","1099","","","","","","","","","","","1","key","1","16.651515151515152","640","250","1"
"","","","","","html-keyboard-response","239","779322","0.0-13.0-63.0","276224","","381","","","","","","","","","","
    <p>How confident are you in your response? Press the corresponding keys from 1 to 5 based on your experience</p>
    <ul id=""confidence-levels"">
      <li id=""conf-1"">1: Not at all confident</li>
      <li id=""conf-2"">2: Slightly confident</li>
      <li id=""conf-3"">3: Somewhat confident</li>
      <li id=""conf-4"">4: Very confident</li>
      <li id=""conf-5"">5: Completely confident</li>
    </ul>","5","","","","","",""
"","","","","","psychophysics","240","780343","0.0-13.0-64.0","276224","","1017","","","","","","","","","","","1","key","1","16.633333333333333","640","250","1"
"","","","","","html-keyboard-response","241","780684","0.0-13.0-65.0","276224","","337","","","","","","","","","","
    <p>How confident are you in your response? Press the corresponding keys from 1 to 5 based on your experience</p>
    <ul id=""confidence-levels"">
      <li id=""conf-1"">1: Not at all confident</li>
      <li id=""conf-2"">2: Slightly confident</li>
      <li id=""conf-3"">3: Somewhat confident</li>
      <li id=""conf-4"">4: Very confident</li>
      <li id=""conf-5"">5: Completely confident</li>
    </ul>","5","","","","","",""
"","","","","","psychophysics","242","781978","0.0-13.0-66.0","276224","","1283","","","","","","","","","","","1","key","1","16.641025641025642","640","250","1"
"","","","","","html-keyboard-response","243","782222","0.0-13.0-67.0","276224","","241","","","","","","","","","","
    <p>How confident are you in your response? Press the corresponding keys from 1 to 5 based on your experience</p>
    <ul id=""confidence-levels"">
      <li id=""conf-1"">1: Not at all confident</li>
      <li id=""conf-2"">2: Slightly confident</li>
      <li id=""conf-3"">3: Somewhat confident</li>
      <li id=""conf-4"">4: Very confident</li>
      <li id=""conf-5"">5: Completely confident</li>
    </ul>","5","","","","","",""
"","","","","","psychophysics","244","784059","0.0-13.0-68.0","276224","","1827","","","","","","","","","","","1","key","1","16.645454545454545","640","250","1"
"","","","","","html-keyboard-response","245","784615","0.0-13.0-69.0","276224","","553","","","","","","","","","","
    <p>How confident are you in your response? Press the corresponding keys from 1 to 5 based on your experience</p>
    <ul id=""confidence-levels"">
      <li id=""conf-1"">1: Not at all confident</li>
      <li id=""conf-2"">2: Slightly confident</li>
      <li id=""conf-3"">3: Somewhat confident</li>
      <li id=""conf-4"">4: Very confident</li>
      <li id=""conf-5"">5: Completely confident</li>
    </ul>","5","","","","","",""
"","","","","","psychophysics","246","785992","0.0-13.0-70.0","276224","","1366","","","","","","","","","","","1","key","1","16.650602409638555","640","250","1"
"","","","","","html-keyboard-response","247","786323","0.0-13.0-71.0","276224","","329","","","","","","","","","","
    <p>How confident are you in your response? Press the corresponding keys from 1 to 5 based on your experience</p>
    <ul id=""confidence-levels"">
      <li id=""conf-1"">1: Not at all confident</li>
      <li id=""conf-2"">2: Slightly confident</li>
      <li id=""conf-3"">3: Somewhat confident</li>
      <li id=""conf-4"">4: Very confident</li>
      <li id=""conf-5"">5: Completely confident</li>
    </ul>","5","","","","","",""
"","","","","","psychophysics","248","787629","0.0-13.0-72.0","276224","","1302","","","","","","","","","","","1","key","1","16.653846153846153","640","250","1"
"","","","","","html-keyboard-response","249","787893","0.0-13.0-73.0","276224","","259","","","","","","","","","","
    <p>How confident are you in your response? Press the corresponding keys from 1 to 5 based on your experience</p>
    <ul id=""confidence-levels"">
      <li id=""conf-1"">1: Not at all confident</li>
      <li id=""conf-2"">2: Slightly confident</li>
      <li id=""conf-3"">3: Somewhat confident</li>
      <li id=""conf-4"">4: Very confident</li>
      <li id=""conf-5"">5: Completely confident</li>
    </ul>","5","","","","","",""
"","","","","","psychophysics","250","789069","0.0-13.0-74.0","276224","","1164","","","","","","","","","","","1","key","1","16.633802816901408","640","250","1"
"","","","","","html-keyboard-response","251","789346","0.0-13.0-75.0","276224","","274","","","","","","","","","","
    <p>How confident are you in your response? Press the corresponding keys from 1 to 5 based on your experience</p>
    <ul id=""confidence-levels"">
      <li id=""conf-1"">1: Not at all confident</li>
      <li id=""conf-2"">2: Slightly confident</li>
      <li id=""conf-3"">3: Somewhat confident</li>
      <li id=""conf-4"">4: Very confident</li>
      <li id=""conf-5"">5: Completely confident</li>
    </ul>","5","","","","","",""
"","","","","","psychophysics","252","790746","0.0-13.0-76.0","276224","","1388","","","","","","","","","","","1","key","1","16.650602409638555","640","250","1"
"","","","","","html-keyboard-response","253","791059","0.0-13.0-77.0","276224","","309","","","","","","","","","","
    <p>How confident are you in your response? Press the corresponding keys from 1 to 5 based on your experience</p>
    <ul id=""confidence-levels"">
      <li id=""conf-1"">1: Not at all confident</li>
      <li id=""conf-2"">2: Slightly confident</li>
      <li id=""conf-3"">3: Somewhat confident</li>
      <li id=""conf-4"">4: Very confident</li>
      <li id=""conf-5"">5: Completely confident</li>
    </ul>","5","","","","","",""
"","","","","","psychophysics","254","792371","0.0-13.0-78.0","276224","","1308","","","","","","","","","","","1","key","1","16.658227848101266","640","250","1"
"","","","","","html-keyboard-response","255","792634","0.0-13.0-79.0","276224","","260","","","","","","","","","","
    <p>How confident are you in your response? Press the corresponding keys from 1 to 5 based on your experience</p>
    <ul id=""confidence-levels"">
      <li id=""conf-1"">1: Not at all confident</li>
      <li id=""conf-2"">2: Slightly confident</li>
      <li id=""conf-3"">3: Somewhat confident</li>
      <li id=""conf-4"">4: Very confident</li>
      <li id=""conf-5"">5: Completely confident</li>
    </ul>","5","","","","","",""
"","","","","","psychophysics","256","794157","0.0-13.0-80.0","276224","","1512","","","","","","","","","","","1","key","1","16.64835164835165","640","250","1"
"","","","","","html-keyboard-response","257","794462","0.0-13.0-81.0","276224","","298","","","","","","","","","","
    <p>How confident are you in your response? Press the corresponding keys from 1 to 5 based on your experience</p>
    <ul id=""confidence-levels"">
      <li id=""conf-1"">1: Not at all confident</li>
      <li id=""conf-2"">2: Slightly confident</li>
      <li id=""conf-3"">3: Somewhat confident</li>
      <li id=""conf-4"">4: Very confident</li>
      <li id=""conf-5"">5: Completely confident</li>
    </ul>","5","","","","","",""
"","","","","","psychophysics","258","795781","0.0-13.0-82.0","276224","","1315","","","","","","","","","","","1","key","1","16.658227848101266","640","250","1"
"","","","","","html-keyboard-response","259","796528","0.0-13.0-83.0","276224","","744","","","","","","","","","","
    <p>How confident are you in your response? Press the corresponding keys from 1 to 5 based on your experience</p>
    <ul id=""confidence-levels"">
      <li id=""conf-1"">1: Not at all confident</li>
      <li id=""conf-2"">2: Slightly confident</li>
      <li id=""conf-3"">3: Somewhat confident</li>
      <li id=""conf-4"">4: Very confident</li>
      <li id=""conf-5"">5: Completely confident</li>
    </ul>","5","","","","","",""
"","","","","","psychophysics","260","797686","0.0-13.0-84.0","276224","","1152","","","","","","","","","","","1","key","1","16.652173913043477","640","250","1"
"","","","","","html-keyboard-response","261","798354","0.0-13.0-85.0","276224","","664","","","","","","","","","","
    <p>How confident are you in your response? Press the corresponding keys from 1 to 5 based on your experience</p>
    <ul id=""confidence-levels"">
      <li id=""conf-1"">1: Not at all confident</li>
      <li id=""conf-2"">2: Slightly confident</li>
      <li id=""conf-3"">3: Somewhat confident</li>
      <li id=""conf-4"">4: Very confident</li>
      <li id=""conf-5"">5: Completely confident</li>
    </ul>","5","","","","","",""
"","","","","","psychophysics","262","799560","0.0-13.0-86.0","276224","","1195","","","","","","","","","","","1","key","1","16.65277777777778","640","250","1"
"","","","","","html-keyboard-response","263","799903","0.0-13.0-87.0","276224","","339","","","","","","","","","","
    <p>How confident are you in your response? Press the corresponding keys from 1 to 5 based on your experience</p>
    <ul id=""confidence-levels"">
      <li id=""conf-1"">1: Not at all confident</li>
      <li id=""conf-2"">2: Slightly confident</li>
      <li id=""conf-3"">3: Somewhat confident</li>
      <li id=""conf-4"">4: Very confident</li>
      <li id=""conf-5"">5: Completely confident</li>
    </ul>","5","","","","","",""
"","","","","","psychophysics","264","801395","0.0-13.0-88.0","276224","","1483","","","","","","","","","","","1","key","1","16.662921348314608","640","250","1"
"","","","","","html-keyboard-response","265","801619","0.0-13.0-89.0","276224","","220","","","","","","","","","","
    <p>How confident are you in your response? Press the corresponding keys from 1 to 5 based on your experience</p>
    <ul id=""confidence-levels"">
      <li id=""conf-1"">1: Not at all confident</li>
      <li id=""conf-2"">2: Slightly confident</li>
      <li id=""conf-3"">3: Somewhat confident</li>
      <li id=""conf-4"">4: Very confident</li>
      <li id=""conf-5"">5: Completely confident</li>
    </ul>","5","","","","","",""
"","","","","","psychophysics","266","802668","0.0-13.0-90.0","276224","","1039","","","","","","","","","","","1","key","1","16.64516129032258","640","250","1"
"","","","","","html-keyboard-response","267","802993","0.0-13.0-91.0","276224","","321","","","","","","","","","","
    <p>How confident are you in your response? Press the corresponding keys from 1 to 5 based on your experience</p>
    <ul id=""confidence-levels"">
      <li id=""conf-1"">1: Not at all confident</li>
      <li id=""conf-2"">2: Slightly confident</li>
      <li id=""conf-3"">3: Somewhat confident</li>
      <li id=""conf-4"">4: Very confident</li>
      <li id=""conf-5"">5: Completely confident</li>
    </ul>","5","","","","","",""
"","","","","","psychophysics","268","804160","0.0-13.0-92.0","276224","","1164","","","","","","","","","","","1","key","1","16.642857142857142","640","250","1"
"","","","","","html-keyboard-response","269","804514","0.0-13.0-93.0","276224","","352","","","","","","","","","","
    <p>How confident are you in your response? Press the corresponding keys from 1 to 5 based on your experience</p>
    <ul id=""confidence-levels"">
      <li id=""conf-1"">1: Not at all confident</li>
      <li id=""conf-2"">2: Slightly confident</li>
      <li id=""conf-3"">3: Somewhat confident</li>
      <li id=""conf-4"">4: Very confident</li>
      <li id=""conf-5"">5: Completely confident</li>
    </ul>","5","","","","","",""
"","","","","","psychophysics","270","805693","0.0-13.0-94.0","276224","","1169","","","","","","","","","","","1","key","1","16.9","640","250","1"
"","","","","","html-keyboard-response","271","806038","0.0-13.0-95.0","276224","","341","","","","","","","","","","
    <p>How confident are you in your response? Press the corresponding keys from 1 to 5 based on your experience</p>
    <ul id=""confidence-levels"">
      <li id=""conf-1"">1: Not at all confident</li>
      <li id=""conf-2"">2: Slightly confident</li>
      <li id=""conf-3"">3: Somewhat confident</li>
      <li id=""conf-4"">4: Very confident</li>
      <li id=""conf-5"">5: Completely confident</li>
    </ul>","5","","","","","",""
"","","","","","psychophysics","272","806987","0.0-13.0-96.0","276224","","944","","","","","","","","","","","1","key","1","16.649122807017545","640","250","1"
"","","","","","html-keyboard-response","273","807389","0.0-13.0-97.0","276224","","400","","","","","","","","","","
    <p>How confident are you in your response? Press the corresponding keys from 1 to 5 based on your experience</p>
    <ul id=""confidence-levels"">
      <li id=""conf-1"">1: Not at all confident</li>
      <li id=""conf-2"">2: Slightly confident</li>
      <li id=""conf-3"">3: Somewhat confident</li>
      <li id=""conf-4"">4: Very confident</li>
      <li id=""conf-5"">5: Completely confident</li>
    </ul>","5","","","","","",""
"","","","","","html-keyboard-response","274","809073","0.0-14.0","276224","","1682","","","","","","","","","","Your average response time is 898.765 ms You are doing great"," ","","","","","",""
"","","","","","survey-text","275","955974","0.0-15.0","276224","","146887","","","","","","","","","","","{""EasyToUnderstand"":""partially true"",""Suggestions"":""showing results of trial to understand what is happening"",""Interface"":""at first it got stuck . i could not see anything just hear the sound"",""Perception"":""yes!""}","","","","","",""
"","","","","","html-keyboard-response","276","960978","0.0-16.0","276224","","null","","","","","","","","","","You have successfully completed all the trials. Thank you for your time. Goodbye :)","null","","","","","",""
