"success","timeout","failed_images","failed_audio","failed_video","trial_type","trial_index","time_elapsed","internal_node_id","participant_id","view_history","rt","item_width_mm","item_height_mm","item_width_px","px2mm","view_dist_mm","item_width_deg","px2deg","win_width_deg","win_height_deg","stimulus","response","response_type","key_press","avg_frame_time","center_x","center_y","correct_response","illusion"
"true","false","[]","[]","[]","preload","0","10","0.0-0.0","977261","","","","","","","","","","","","","","","","","","","",""
"","","","","","instructions","1","3231","0.0-1.0","977261","[{""page_index"":0,""viewing_time"":1167},{""page_index"":1,""viewing_time"":952},{""page_index"":2,""viewing_time"":1101}]","3220","","","","","","","","","","","","","","","","","",""
"true","","","","","fullscreen","2","5254","0.0-2.0","977261","","","","","","","","","","","","","","","","","","","",""
"","","","","","virtual-chinrest","3","69782","0.0-3.0","977261","","64525","85.6","53.98","912","10.65","441.56","11.072662869936432","82.36501108294249","15.540579466577448","9.712862166610906","","","","","","","","",""
"","","","","","html-keyboard-response","4","72134","0.0-4.0","977261","","2350","","","","","","","","","","This is just trial run, press Space bar to continue"," ","","","","","","",""
"","","","","","psychophysics","5","74781","0.0-5.0-0.0","977261","","2637","","","","","","","","","","","1","key","1","32.825","640","250","1","No"
"","","","","","psychophysics","6","76477","0.0-5.0-1.0","977261","","1686","","","","","","","","","","","1","key","1","32.03846153846154","640","250","1","No"
"","","","","","psychophysics","7","77872","0.0-5.0-2.0","977261","","1389","","","","","","","","","","","1","key","1","30.333333333333332","640","250","1","YES"
"","","","","","psychophysics","8","78909","0.0-5.0-3.0","977261","","1032","","","","","","","","","","","1","key","1","31.1875","640","250","0","NO"
"","","","","","psychophysics","9","81382","0.0-5.0-4.0","977261","","2469","","","","","","","","","","","2","key","2","33.342465753424655","640","250","1","NO"
"","","","","","psychophysics","10","82789","0.0-5.0-5.0","977261","","1402","","","","","","","","","","","2","key","2","30.355555555555554","640","250","1","YES"
"","","","","","psychophysics","11","84953","0.0-5.0-6.0","977261","","2160","","","","","","","","","","","2","key","2","33.34375","640","250","1","NO"
"","","","","","psychophysics","12","85984","0.0-5.0-7.0","977261","","1027","","","","","","","","","","","1","key","1","31.25","640","250","0","NO"
"","","","","","html-keyboard-response","13","87776","0.0-6.0","977261","","1791","","","","","","","","","","You have successfully completed the pilot , Press Space bar to continue to main block of experiment"," ","","","","","","",""
"","","","","","psychophysics","14","88872","0.0-7.0-0.0","977261","","1084","","","","","","","","","","","1","key","1","31.323529411764707","640","250","0","NO"
"","","","","","html-keyboard-response","15","90996","0.0-7.0-1.0","977261","","2122","","","","","","","","","","
    <p>How confident are you in your response? Press the corresponding keys from 1 to 5 based on your experience</p>
    <ul id=""confidence-levels"">
      <li id=""conf-1"">1: Not at all confident</li>
      <li id=""conf-2"">2: Slightly confident</li>
      <li id=""conf-3"">3: Somewhat confident</li>
      <li id=""conf-4"">4: Very confident</li>
      <li id=""conf-5"">5: Completely confident</li>
    </ul>","5","","","","","","",""
"","","","","","psychophysics","16","92731","0.0-7.0-2.0","977261","","1729","","","","","","","","","","","2","key","2","33.35294117647059","640","250","1","NO"
"","","","","","html-keyboard-response","17","93795","0.0-7.0-3.0","977261","","1063","","","","","","","","","","
    <p>How confident are you in your response? Press the corresponding keys from 1 to 5 based on your experience</p>
    <ul id=""confidence-levels"">
      <li id=""conf-1"">1: Not at all confident</li>
      <li id=""conf-2"">2: Slightly confident</li>
      <li id=""conf-3"">3: Somewhat confident</li>
      <li id=""conf-4"">4: Very confident</li>
      <li id=""conf-5"">5: Completely confident</li>
    </ul>","5","","","","","","",""
"","","","","","psychophysics","18","95565","0.0-7.0-4.0","977261","","1764","","","","","","","","","","","2","key","2","33.36538461538461","640","250","1","NO"
"","","","","","html-keyboard-response","19","96878","0.0-7.0-5.0","977261","","1312","","","","","","","","","","
    <p>How confident are you in your response? Press the corresponding keys from 1 to 5 based on your experience</p>
    <ul id=""confidence-levels"">
      <li id=""conf-1"">1: Not at all confident</li>
      <li id=""conf-2"">2: Slightly confident</li>
      <li id=""conf-3"">3: Somewhat confident</li>
      <li id=""conf-4"">4: Very confident</li>
      <li id=""conf-5"">5: Completely confident</li>
    </ul>","5","","","","","","",""
"","","","","","psychophysics","20","98123","0.0-7.0-6.0","977261","","1238","","","","","","","","","","","2","key","2","33.388888888888886","640","250","1","NO"
"","","","","","html-keyboard-response","21","98959","0.0-7.0-7.0","977261","","835","","","","","","","","","","
    <p>How confident are you in your response? Press the corresponding keys from 1 to 5 based on your experience</p>
    <ul id=""confidence-levels"">
      <li id=""conf-1"">1: Not at all confident</li>
      <li id=""conf-2"">2: Slightly confident</li>
      <li id=""conf-3"">3: Somewhat confident</li>
      <li id=""conf-4"">4: Very confident</li>
      <li id=""conf-5"">5: Completely confident</li>
    </ul>","5","","","","","","",""
"","","","","","psychophysics","22","100835","0.0-7.0-8.0","977261","","1870","","","","","","","","","","","2","key","2","32.228070175438596","640","250","1","No"
"","","","","","html-keyboard-response","23","101290","0.0-7.0-9.0","977261","","455","","","","","","","","","","
    <p>How confident are you in your response? Press the corresponding keys from 1 to 5 based on your experience</p>
    <ul id=""confidence-levels"">
      <li id=""conf-1"">1: Not at all confident</li>
      <li id=""conf-2"">2: Slightly confident</li>
      <li id=""conf-3"">3: Somewhat confident</li>
      <li id=""conf-4"">4: Very confident</li>
      <li id=""conf-5"">5: Completely confident</li>
    </ul>","5","","","","","","",""
"","","","","","psychophysics","24","102702","0.0-7.0-10.0","977261","","1405","","","","","","","","","","","2","key","2","31.86046511627907","640","250","1","No"
"","","","","","html-keyboard-response","25","103156","0.0-7.0-11.0","977261","","453","","","","","","","","","","
    <p>How confident are you in your response? Press the corresponding keys from 1 to 5 based on your experience</p>
    <ul id=""confidence-levels"">
      <li id=""conf-1"">1: Not at all confident</li>
      <li id=""conf-2"">2: Slightly confident</li>
      <li id=""conf-3"">3: Somewhat confident</li>
      <li id=""conf-4"">4: Very confident</li>
      <li id=""conf-5"">5: Completely confident</li>
    </ul>","5","","","","","","",""
"","","","","","psychophysics","26","104395","0.0-7.0-12.0","977261","","1233","","","","","","","","","","","1","key","1","31.657894736842106","640","250","0","NO"
"","","","","","html-keyboard-response","27","105017","0.0-7.0-13.0","977261","","621","","","","","","","","","","
    <p>How confident are you in your response? Press the corresponding keys from 1 to 5 based on your experience</p>
    <ul id=""confidence-levels"">
      <li id=""conf-1"">1: Not at all confident</li>
      <li id=""conf-2"">2: Slightly confident</li>
      <li id=""conf-3"">3: Somewhat confident</li>
      <li id=""conf-4"">4: Very confident</li>
      <li id=""conf-5"">5: Completely confident</li>
    </ul>","5","","","","","","",""
"","","","","","psychophysics","28","106314","0.0-7.0-14.0","977261","","1289","","","","","","","","","","","2","key","2","30.261904761904763","640","250","1","YES"
"","","","","","html-keyboard-response","29","106714","0.0-7.0-15.0","977261","","399","","","","","","","","","","
    <p>How confident are you in your response? Press the corresponding keys from 1 to 5 based on your experience</p>
    <ul id=""confidence-levels"">
      <li id=""conf-1"">1: Not at all confident</li>
      <li id=""conf-2"">2: Slightly confident</li>
      <li id=""conf-3"">3: Somewhat confident</li>
      <li id=""conf-4"">4: Very confident</li>
      <li id=""conf-5"">5: Completely confident</li>
    </ul>","5","","","","","","",""
"","","","","","psychophysics","30","107965","0.0-7.0-16.0","977261","","1245","","","","","","","","","","","2","key","2","33.416666666666664","640","250","1","NO"
"","","","","","html-keyboard-response","31","108932","0.0-7.0-17.0","977261","","966","","","","","","","","","","
    <p>How confident are you in your response? Press the corresponding keys from 1 to 5 based on your experience</p>
    <ul id=""confidence-levels"">
      <li id=""conf-1"">1: Not at all confident</li>
      <li id=""conf-2"">2: Slightly confident</li>
      <li id=""conf-3"">3: Somewhat confident</li>
      <li id=""conf-4"">4: Very confident</li>
      <li id=""conf-5"">5: Completely confident</li>
    </ul>","5","","","","","","",""
"","","","","","psychophysics","32","110358","0.0-7.0-18.0","977261","","1420","","","","","","","","","","","2","key","2","30.533333333333335","640","250","1","YES"
"","","","","","html-keyboard-response","33","110825","0.0-7.0-19.0","977261","","465","","","","","","","","","","
    <p>How confident are you in your response? Press the corresponding keys from 1 to 5 based on your experience</p>
    <ul id=""confidence-levels"">
      <li id=""conf-1"">1: Not at all confident</li>
      <li id=""conf-2"">2: Slightly confident</li>
      <li id=""conf-3"">3: Somewhat confident</li>
      <li id=""conf-4"">4: Very confident</li>
      <li id=""conf-5"">5: Completely confident</li>
    </ul>","5","","","","","","",""
"","","","","","psychophysics","34","112060","0.0-7.0-20.0","977261","","1228","","","","","","","","","","","2","key","2","30.075","640","250","1","YES"
"","","","","","html-keyboard-response","35","112483","0.0-7.0-21.0","977261","","418","","","","","","","","","","
    <p>How confident are you in your response? Press the corresponding keys from 1 to 5 based on your experience</p>
    <ul id=""confidence-levels"">
      <li id=""conf-1"">1: Not at all confident</li>
      <li id=""conf-2"">2: Slightly confident</li>
      <li id=""conf-3"">3: Somewhat confident</li>
      <li id=""conf-4"">4: Very confident</li>
      <li id=""conf-5"">5: Completely confident</li>
    </ul>","5","","","","","","",""
"","","","","","psychophysics","36","113680","0.0-7.0-22.0","977261","","1192","","","","","","","","","","","2","key","2","33.457142857142856","640","250","1","NO"
"","","","","","html-keyboard-response","37","114218","0.0-7.0-23.0","977261","","538","","","","","","","","","","
    <p>How confident are you in your response? Press the corresponding keys from 1 to 5 based on your experience</p>
    <ul id=""confidence-levels"">
      <li id=""conf-1"">1: Not at all confident</li>
      <li id=""conf-2"">2: Slightly confident</li>
      <li id=""conf-3"">3: Somewhat confident</li>
      <li id=""conf-4"">4: Very confident</li>
      <li id=""conf-5"">5: Completely confident</li>
    </ul>","5","","","","","","",""
"","","","","","psychophysics","38","115362","0.0-7.0-24.0","977261","","1137","","","","","","","","","","","1","key","1","31.542857142857144","640","250","0","NO"
"","","","","","html-keyboard-response","39","115891","0.0-7.0-25.0","977261","","528","","","","","","","","","","
    <p>How confident are you in your response? Press the corresponding keys from 1 to 5 based on your experience</p>
    <ul id=""confidence-levels"">
      <li id=""conf-1"">1: Not at all confident</li>
      <li id=""conf-2"">2: Slightly confident</li>
      <li id=""conf-3"">3: Somewhat confident</li>
      <li id=""conf-4"">4: Very confident</li>
      <li id=""conf-5"">5: Completely confident</li>
    </ul>","5","","","","","","",""
"","","","","","psychophysics","40","116859","0.0-7.0-26.0","977261","","964","","","","","","","","","","","1","key","1","31.266666666666666","640","250","0","NO"
"","","","","","html-keyboard-response","41","117317","0.0-7.0-27.0","977261","","456","","","","","","","","","","
    <p>How confident are you in your response? Press the corresponding keys from 1 to 5 based on your experience</p>
    <ul id=""confidence-levels"">
      <li id=""conf-1"">1: Not at all confident</li>
      <li id=""conf-2"">2: Slightly confident</li>
      <li id=""conf-3"">3: Somewhat confident</li>
      <li id=""conf-4"">4: Very confident</li>
      <li id=""conf-5"">5: Completely confident</li>
    </ul>","5","","","","","","",""
"","","","","","psychophysics","42","118658","0.0-7.0-28.0","977261","","1335","","","","","","","","","","","2","key","2","31.829268292682926","640","250","1","No"
"","","","","","html-keyboard-response","43","119251","0.0-7.0-29.0","977261","","592","","","","","","","","","","
    <p>How confident are you in your response? Press the corresponding keys from 1 to 5 based on your experience</p>
    <ul id=""confidence-levels"">
      <li id=""conf-1"">1: Not at all confident</li>
      <li id=""conf-2"">2: Slightly confident</li>
      <li id=""conf-3"">3: Somewhat confident</li>
      <li id=""conf-4"">4: Very confident</li>
      <li id=""conf-5"">5: Completely confident</li>
    </ul>","5","","","","","","",""
"","","","","","psychophysics","44","120324","0.0-7.0-30.0","977261","","1067","","","","","","","","","","","2","key","2","31.454545454545453","640","250","1","No"
"","","","","","html-keyboard-response","45","121003","0.0-7.0-31.0","977261","","679","","","","","","","","","","
    <p>How confident are you in your response? Press the corresponding keys from 1 to 5 based on your experience</p>
    <ul id=""confidence-levels"">
      <li id=""conf-1"">1: Not at all confident</li>
      <li id=""conf-2"">2: Slightly confident</li>
      <li id=""conf-3"">3: Somewhat confident</li>
      <li id=""conf-4"">4: Very confident</li>
      <li id=""conf-5"">5: Completely confident</li>
    </ul>","5","","","","","","",""
"","","","","","psychophysics","46","122073","0.0-7.0-32.0","977261","","1064","","","","","","","","","","","1","key","1","31.454545454545453","640","250","0","NO"
"","","","","","html-keyboard-response","47","122505","0.0-7.0-33.0","977261","","432","","","","","","","","","","
    <p>How confident are you in your response? Press the corresponding keys from 1 to 5 based on your experience</p>
    <ul id=""confidence-levels"">
      <li id=""conf-1"">1: Not at all confident</li>
      <li id=""conf-2"">2: Slightly confident</li>
      <li id=""conf-3"">3: Somewhat confident</li>
      <li id=""conf-4"">4: Very confident</li>
      <li id=""conf-5"">5: Completely confident</li>
    </ul>","5","","","","","","",""
"","","","","","psychophysics","48","123677","0.0-7.0-34.0","977261","","1167","","","","","","","","","","","2","key","2","30.026315789473685","640","250","1","YES"
"","","","","","html-keyboard-response","49","124146","0.0-7.0-35.0","977261","","469","","","","","","","","","","
    <p>How confident are you in your response? Press the corresponding keys from 1 to 5 based on your experience</p>
    <ul id=""confidence-levels"">
      <li id=""conf-1"">1: Not at all confident</li>
      <li id=""conf-2"">2: Slightly confident</li>
      <li id=""conf-3"">3: Somewhat confident</li>
      <li id=""conf-4"">4: Very confident</li>
      <li id=""conf-5"">5: Completely confident</li>
    </ul>","5","","","","","","",""
"","","","","","psychophysics","50","125234","0.0-7.0-36.0","977261","","1083","","","","","","","","","","","2","key","2","33.45161290322581","640","250","1","NO"
"","","","","","html-keyboard-response","51","125686","0.0-7.0-37.0","977261","","451","","","","","","","","","","
    <p>How confident are you in your response? Press the corresponding keys from 1 to 5 based on your experience</p>
    <ul id=""confidence-levels"">
      <li id=""conf-1"">1: Not at all confident</li>
      <li id=""conf-2"">2: Slightly confident</li>
      <li id=""conf-3"">3: Somewhat confident</li>
      <li id=""conf-4"">4: Very confident</li>
      <li id=""conf-5"">5: Completely confident</li>
    </ul>","5","","","","","","",""
"","","","","","psychophysics","52","126881","0.0-7.0-38.0","977261","","1190","","","","","","","","","","","2","key","2","33.457142857142856","640","250","1","NO"
"","","","","","html-keyboard-response","53","127318","0.0-7.0-39.0","977261","","436","","","","","","","","","","
    <p>How confident are you in your response? Press the corresponding keys from 1 to 5 based on your experience</p>
    <ul id=""confidence-levels"">
      <li id=""conf-1"">1: Not at all confident</li>
      <li id=""conf-2"">2: Slightly confident</li>
      <li id=""conf-3"">3: Somewhat confident</li>
      <li id=""conf-4"">4: Very confident</li>
      <li id=""conf-5"">5: Completely confident</li>
    </ul>","5","","","","","","",""
"","","","","","psychophysics","54","128803","0.0-7.0-40.0","977261","","1480","","","","","","","","","","","1","key","1","31.956521739130434","640","250","0","NO"
"","","","","","html-keyboard-response","55","129169","0.0-7.0-41.0","977261","","365","","","","","","","","","","
    <p>How confident are you in your response? Press the corresponding keys from 1 to 5 based on your experience</p>
    <ul id=""confidence-levels"">
      <li id=""conf-1"">1: Not at all confident</li>
      <li id=""conf-2"">2: Slightly confident</li>
      <li id=""conf-3"">3: Somewhat confident</li>
      <li id=""conf-4"">4: Very confident</li>
      <li id=""conf-5"">5: Completely confident</li>
    </ul>","5","","","","","","",""
"","","","","","psychophysics","56","130330","0.0-7.0-42.0","977261","","1156","","","","","","","","","","","2","key","2","31.685714285714287","640","250","1","No"
"","","","","","html-keyboard-response","57","130622","0.0-7.0-43.0","977261","","291","","","","","","","","","","
    <p>How confident are you in your response? Press the corresponding keys from 1 to 5 based on your experience</p>
    <ul id=""confidence-levels"">
      <li id=""conf-1"">1: Not at all confident</li>
      <li id=""conf-2"">2: Slightly confident</li>
      <li id=""conf-3"">3: Somewhat confident</li>
      <li id=""conf-4"">4: Very confident</li>
      <li id=""conf-5"">5: Completely confident</li>
    </ul>","5","","","","","","",""
"","","","","","psychophysics","58","135664","0.0-7.0-44.0","977261","","5036","","","","","","","","","","","2","key","2","32.493506493506494","640","250","1","YES"
"","","","","","html-keyboard-response","59","137562","0.0-7.0-45.0","977261","","1898","","","","","","","","","","
    <p>How confident are you in your response? Press the corresponding keys from 1 to 5 based on your experience</p>
    <ul id=""confidence-levels"">
      <li id=""conf-1"">1: Not at all confident</li>
      <li id=""conf-2"">2: Slightly confident</li>
      <li id=""conf-3"">3: Somewhat confident</li>
      <li id=""conf-4"">4: Very confident</li>
      <li id=""conf-5"">5: Completely confident</li>
    </ul>","5","","","","","","",""
"","","","","","psychophysics","60","138987","0.0-7.0-46.0","977261","","1419","","","","","","","","","","","2","key","2","31.931818181818183","640","250","1","No"
"","","","","","html-keyboard-response","61","139265","0.0-7.0-47.0","977261","","278","","","","","","","","","","
    <p>How confident are you in your response? Press the corresponding keys from 1 to 5 based on your experience</p>
    <ul id=""confidence-levels"">
      <li id=""conf-1"">1: Not at all confident</li>
      <li id=""conf-2"">2: Slightly confident</li>
      <li id=""conf-3"">3: Somewhat confident</li>
      <li id=""conf-4"">4: Very confident</li>
      <li id=""conf-5"">5: Completely confident</li>
    </ul>","5","","","","","","",""
"","","","","","psychophysics","62","140361","0.0-7.0-48.0","977261","","1090","","","","","","","","","","","2","key","2","29.77777777777778","640","250","1","YES"
"","","","","","html-keyboard-response","63","140785","0.0-7.0-49.0","977261","","424","","","","","","","","","","
    <p>How confident are you in your response? Press the corresponding keys from 1 to 5 based on your experience</p>
    <ul id=""confidence-levels"">
      <li id=""conf-1"">1: Not at all confident</li>
      <li id=""conf-2"">2: Slightly confident</li>
      <li id=""conf-3"">3: Somewhat confident</li>
      <li id=""conf-4"">4: Very confident</li>
      <li id=""conf-5"">5: Completely confident</li>
    </ul>","5","","","","","","",""
"","","","","","psychophysics","64","143818","0.0-7.0-50.0","977261","","3023","","","","","","","","","","","1","key","1","33.3","640","250","1","NO"
"","","","","","html-keyboard-response","65","144341","0.0-7.0-51.0","977261","","522","","","","","","","","","","
    <p>How confident are you in your response? Press the corresponding keys from 1 to 5 based on your experience</p>
    <ul id=""confidence-levels"">
      <li id=""conf-1"">1: Not at all confident</li>
      <li id=""conf-2"">2: Slightly confident</li>
      <li id=""conf-3"">3: Somewhat confident</li>
      <li id=""conf-4"">4: Very confident</li>
      <li id=""conf-5"">5: Completely confident</li>
    </ul>","5","","","","","","",""
"","","","","","psychophysics","66","145372","0.0-7.0-52.0","977261","","1023","","","","","","","","","","","1","key","1","31.4375","640","250","0","NO"
"","","","","","html-keyboard-response","67","145849","0.0-7.0-53.0","977261","","476","","","","","","","","","","
    <p>How confident are you in your response? Press the corresponding keys from 1 to 5 based on your experience</p>
    <ul id=""confidence-levels"">
      <li id=""conf-1"">1: Not at all confident</li>
      <li id=""conf-2"">2: Slightly confident</li>
      <li id=""conf-3"">3: Somewhat confident</li>
      <li id=""conf-4"">4: Very confident</li>
      <li id=""conf-5"">5: Completely confident</li>
    </ul>","5","","","","","","",""
"","","","","","psychophysics","68","146805","0.0-7.0-54.0","977261","","950","","","","","","","","","","","1","key","1","31.266666666666666","640","250","0","NO"
"","","","","","html-keyboard-response","69","147303","0.0-7.0-55.0","977261","","498","","","","","","","","","","
    <p>How confident are you in your response? Press the corresponding keys from 1 to 5 based on your experience</p>
    <ul id=""confidence-levels"">
      <li id=""conf-1"">1: Not at all confident</li>
      <li id=""conf-2"">2: Slightly confident</li>
      <li id=""conf-3"">3: Somewhat confident</li>
      <li id=""conf-4"">4: Very confident</li>
      <li id=""conf-5"">5: Completely confident</li>
    </ul>","5","","","","","","",""
"","","","","","psychophysics","70","148385","0.0-7.0-56.0","977261","","1076","","","","","","","","","","","2","key","2","31.558823529411764","640","250","1","No"
"","","","","","html-keyboard-response","71","148712","0.0-7.0-57.0","977261","","326","","","","","","","","","","
    <p>How confident are you in your response? Press the corresponding keys from 1 to 5 based on your experience</p>
    <ul id=""confidence-levels"">
      <li id=""conf-1"">1: Not at all confident</li>
      <li id=""conf-2"">2: Slightly confident</li>
      <li id=""conf-3"">3: Somewhat confident</li>
      <li id=""conf-4"">4: Very confident</li>
      <li id=""conf-5"">5: Completely confident</li>
    </ul>","5","","","","","","",""
"","","","","","psychophysics","72","149663","0.0-7.0-58.0","977261","","947","","","","","","","","","","","1","key","1","31.133333333333333","640","250","0","NO"
"","","","","","html-keyboard-response","73","150011","0.0-7.0-59.0","977261","","347","","","","","","","","","","
    <p>How confident are you in your response? Press the corresponding keys from 1 to 5 based on your experience</p>
    <ul id=""confidence-levels"">
      <li id=""conf-1"">1: Not at all confident</li>
      <li id=""conf-2"">2: Slightly confident</li>
      <li id=""conf-3"">3: Somewhat confident</li>
      <li id=""conf-4"">4: Very confident</li>
      <li id=""conf-5"">5: Completely confident</li>
    </ul>","5","","","","","","",""
"","","","","","psychophysics","74","151144","0.0-7.0-60.0","977261","","1127","","","","","","","","","","","2","key","2","31.542857142857144","640","250","1","No"
"","","","","","html-keyboard-response","75","151479","0.0-7.0-61.0","977261","","334","","","","","","","","","","
    <p>How confident are you in your response? Press the corresponding keys from 1 to 5 based on your experience</p>
    <ul id=""confidence-levels"">
      <li id=""conf-1"">1: Not at all confident</li>
      <li id=""conf-2"">2: Slightly confident</li>
      <li id=""conf-3"">3: Somewhat confident</li>
      <li id=""conf-4"">4: Very confident</li>
      <li id=""conf-5"">5: Completely confident</li>
    </ul>","5","","","","","","",""
"","","","","","psychophysics","76","152686","0.0-7.0-62.0","977261","","1201","","","","","","","","","","","2","key","2","30.05128205128205","640","250","1","YES"
"","","","","","html-keyboard-response","77","152969","0.0-7.0-63.0","977261","","282","","","","","","","","","","
    <p>How confident are you in your response? Press the corresponding keys from 1 to 5 based on your experience</p>
    <ul id=""confidence-levels"">
      <li id=""conf-1"">1: Not at all confident</li>
      <li id=""conf-2"">2: Slightly confident</li>
      <li id=""conf-3"">3: Somewhat confident</li>
      <li id=""conf-4"">4: Very confident</li>
      <li id=""conf-5"">5: Completely confident</li>
    </ul>","5","","","","","","",""
"","","","","","psychophysics","78","154959","0.0-7.0-64.0","977261","","1985","","","","","","","","","","","2","key","2","31.322580645161292","640","250","1","YES"
"","","","","","html-keyboard-response","79","155224","0.0-7.0-65.0","977261","","264","","","","","","","","","","
    <p>How confident are you in your response? Press the corresponding keys from 1 to 5 based on your experience</p>
    <ul id=""confidence-levels"">
      <li id=""conf-1"">1: Not at all confident</li>
      <li id=""conf-2"">2: Slightly confident</li>
      <li id=""conf-3"">3: Somewhat confident</li>
      <li id=""conf-4"">4: Very confident</li>
      <li id=""conf-5"">5: Completely confident</li>
    </ul>","5","","","","","","",""
"","","","","","psychophysics","80","156345","0.0-7.0-66.0","977261","","1116","","","","","","","","","","","1","key","1","31.542857142857144","640","250","0","NO"
"","","","","","html-keyboard-response","81","156765","0.0-7.0-67.0","977261","","419","","","","","","","","","","
    <p>How confident are you in your response? Press the corresponding keys from 1 to 5 based on your experience</p>
    <ul id=""confidence-levels"">
      <li id=""conf-1"">1: Not at all confident</li>
      <li id=""conf-2"">2: Slightly confident</li>
      <li id=""conf-3"">3: Somewhat confident</li>
      <li id=""conf-4"">4: Very confident</li>
      <li id=""conf-5"">5: Completely confident</li>
    </ul>","5","","","","","","",""
"","","","","","psychophysics","82","158271","0.0-7.0-68.0","977261","","1501","","","","","","","","","","","2","key","2","32","640","250","1","No"
"","","","","","html-keyboard-response","83","158573","0.0-7.0-69.0","977261","","301","","","","","","","","","","
    <p>How confident are you in your response? Press the corresponding keys from 1 to 5 based on your experience</p>
    <ul id=""confidence-levels"">
      <li id=""conf-1"">1: Not at all confident</li>
      <li id=""conf-2"">2: Slightly confident</li>
      <li id=""conf-3"">3: Somewhat confident</li>
      <li id=""conf-4"">4: Very confident</li>
      <li id=""conf-5"">5: Completely confident</li>
    </ul>","5","","","","","","",""
"","","","","","psychophysics","84","159503","0.0-7.0-70.0","977261","","926","","","","","","","","","","","2","key","2","31.17241379310345","640","250","1","No"
"","","","","","html-keyboard-response","85","159876","0.0-7.0-71.0","977261","","372","","","","","","","","","","
    <p>How confident are you in your response? Press the corresponding keys from 1 to 5 based on your experience</p>
    <ul id=""confidence-levels"">
      <li id=""conf-1"">1: Not at all confident</li>
      <li id=""conf-2"">2: Slightly confident</li>
      <li id=""conf-3"">3: Somewhat confident</li>
      <li id=""conf-4"">4: Very confident</li>
      <li id=""conf-5"">5: Completely confident</li>
    </ul>","5","","","","","","",""
"","","","","","psychophysics","86","161009","0.0-7.0-72.0","977261","","1127","","","","","","","","","","","2","key","2","33.484848484848484","640","250","1","NO"
"","","","","","html-keyboard-response","87","161434","0.0-7.0-73.0","977261","","425","","","","","","","","","","
    <p>How confident are you in your response? Press the corresponding keys from 1 to 5 based on your experience</p>
    <ul id=""confidence-levels"">
      <li id=""conf-1"">1: Not at all confident</li>
      <li id=""conf-2"">2: Slightly confident</li>
      <li id=""conf-3"">3: Somewhat confident</li>
      <li id=""conf-4"">4: Very confident</li>
      <li id=""conf-5"">5: Completely confident</li>
    </ul>","5","","","","","","",""
"","","","","","psychophysics","88","162687","0.0-7.0-74.0","977261","","1247","","","","","","","","","","","2","key","2","30.125","640","250","1","YES"
"","","","","","html-keyboard-response","89","163031","0.0-7.0-75.0","977261","","344","","","","","","","","","","
    <p>How confident are you in your response? Press the corresponding keys from 1 to 5 based on your experience</p>
    <ul id=""confidence-levels"">
      <li id=""conf-1"">1: Not at all confident</li>
      <li id=""conf-2"">2: Slightly confident</li>
      <li id=""conf-3"">3: Somewhat confident</li>
      <li id=""conf-4"">4: Very confident</li>
      <li id=""conf-5"">5: Completely confident</li>
    </ul>","5","","","","","","",""
"","","","","","psychophysics","90","164102","0.0-7.0-76.0","977261","","1065","","","","","","","","","","","2","key","2","29.714285714285715","640","250","1","YES"
"","","","","","html-keyboard-response","91","164536","0.0-7.0-77.0","977261","","433","","","","","","","","","","
    <p>How confident are you in your response? Press the corresponding keys from 1 to 5 based on your experience</p>
    <ul id=""confidence-levels"">
      <li id=""conf-1"">1: Not at all confident</li>
      <li id=""conf-2"">2: Slightly confident</li>
      <li id=""conf-3"">3: Somewhat confident</li>
      <li id=""conf-4"">4: Very confident</li>
      <li id=""conf-5"">5: Completely confident</li>
    </ul>","5","","","","","","",""
"","","","","","psychophysics","92","165782","0.0-7.0-78.0","977261","","1240","","","","","","","","","","","2","key","2","33.47222222222222","640","250","1","NO"
"","","","","","html-keyboard-response","93","166206","0.0-7.0-79.0","977261","","424","","","","","","","","","","
    <p>How confident are you in your response? Press the corresponding keys from 1 to 5 based on your experience</p>
    <ul id=""confidence-levels"">
      <li id=""conf-1"">1: Not at all confident</li>
      <li id=""conf-2"">2: Slightly confident</li>
      <li id=""conf-3"">3: Somewhat confident</li>
      <li id=""conf-4"">4: Very confident</li>
      <li id=""conf-5"">5: Completely confident</li>
    </ul>","5","","","","","","",""
"","","","","","html-keyboard-response","94","171047","0.0-8.0","977261","","4840","","","","","","","","","","Your average response time is  942.302 ms You are doing great"," ","","","","","","",""
"","","","","","html-button-response","95","231938","0.0-9.0","977261","","60889","","","","","","","","","","<p>You have successfully completed one block of the experiment. The next part of the experiment can be started in <span id=""clock"">1:00</span> <br>You can take a break for a minute or more if you like and Press continue when you are ready","0","","","","","","",""
"","","","","","psychophysics","96","234550","0.0-10.0-0.0","977261","","2608","","","","","","","","","","","2","key","2","31.839506172839506","640","250","1","YES"
"","","","","","html-keyboard-response","97","235725","0.0-10.0-1.0","977261","","1174","","","","","","","","","","
    <p>How confident are you in your response? Press the corresponding keys from 1 to 5 based on your experience</p>
    <ul id=""confidence-levels"">
      <li id=""conf-1"">1: Not at all confident</li>
      <li id=""conf-2"">2: Slightly confident</li>
      <li id=""conf-3"">3: Somewhat confident</li>
      <li id=""conf-4"">4: Very confident</li>
      <li id=""conf-5"">5: Completely confident</li>
    </ul>","5","","","","","","",""
"","","","","","psychophysics","98","237184","0.0-10.0-2.0","977261","","1453","","","","","","","","","","","2","key","2","32.022222222222226","640","250","2","YES"
"","","","","","html-keyboard-response","99","237664","0.0-10.0-3.0","977261","","477","","","","","","","","","","
    <p>How confident are you in your response? Press the corresponding keys from 1 to 5 based on your experience</p>
    <ul id=""confidence-levels"">
      <li id=""conf-1"">1: Not at all confident</li>
      <li id=""conf-2"">2: Slightly confident</li>
      <li id=""conf-3"">3: Somewhat confident</li>
      <li id=""conf-4"">4: Very confident</li>
      <li id=""conf-5"">5: Completely confident</li>
    </ul>","5","","","","","","",""
"","","","","","psychophysics","100","238759","0.0-10.0-4.0","977261","","1090","","","","","","","","","","","2","key","2","31.529411764705884","640","250","2","YES"
"","","","","","html-keyboard-response","101","239049","0.0-10.0-5.0","977261","","289","","","","","","","","","","
    <p>How confident are you in your response? Press the corresponding keys from 1 to 5 based on your experience</p>
    <ul id=""confidence-levels"">
      <li id=""conf-1"">1: Not at all confident</li>
      <li id=""conf-2"">2: Slightly confident</li>
      <li id=""conf-3"">3: Somewhat confident</li>
      <li id=""conf-4"">4: Very confident</li>
      <li id=""conf-5"">5: Completely confident</li>
    </ul>","5","","","","","","",""
"","","","","","psychophysics","102","240128","0.0-10.0-6.0","977261","","1071","","","","","","","","","","","2","key","2","29.63888888888889","640","250","1","YES"
"","","","","","html-keyboard-response","103","240367","0.0-10.0-7.0","977261","","237","","","","","","","","","","
    <p>How confident are you in your response? Press the corresponding keys from 1 to 5 based on your experience</p>
    <ul id=""confidence-levels"">
      <li id=""conf-1"">1: Not at all confident</li>
      <li id=""conf-2"">2: Slightly confident</li>
      <li id=""conf-3"">3: Somewhat confident</li>
      <li id=""conf-4"">4: Very confident</li>
      <li id=""conf-5"">5: Completely confident</li>
    </ul>","5","","","","","","",""
"","","","","","psychophysics","104","241428","0.0-10.0-8.0","977261","","1056","","","","","","","","","","","2","key","2","31.4375","640","250","2","YES"
"","","","","","html-keyboard-response","105","241658","0.0-10.0-9.0","977261","","229","","","","","","","","","","
    <p>How confident are you in your response? Press the corresponding keys from 1 to 5 based on your experience</p>
    <ul id=""confidence-levels"">
      <li id=""conf-1"">1: Not at all confident</li>
      <li id=""conf-2"">2: Slightly confident</li>
      <li id=""conf-3"">3: Somewhat confident</li>
      <li id=""conf-4"">4: Very confident</li>
      <li id=""conf-5"">5: Completely confident</li>
    </ul>","5","","","","","","",""
"","","","","","psychophysics","106","242942","0.0-10.0-10.0","977261","","1275","","","","","","","","","","","2","key","2","30.19047619047619","640","250","2","NO"
"","","","","","html-keyboard-response","107","243118","0.0-10.0-11.0","977261","","176","","","","","","","","","","
    <p>How confident are you in your response? Press the corresponding keys from 1 to 5 based on your experience</p>
    <ul id=""confidence-levels"">
      <li id=""conf-1"">1: Not at all confident</li>
      <li id=""conf-2"">2: Slightly confident</li>
      <li id=""conf-3"">3: Somewhat confident</li>
      <li id=""conf-4"">4: Very confident</li>
      <li id=""conf-5"">5: Completely confident</li>
    </ul>","5","","","","","","",""
"","","","","","psychophysics","108","244372","0.0-10.0-12.0","977261","","1249","","","","","","","","","","","2","key","2","31.710526315789473","640","250","2","YES"
"","","","","","html-keyboard-response","109","245834","0.0-10.0-13.0","977261","","1461","","","","","","","","","","
    <p>How confident are you in your response? Press the corresponding keys from 1 to 5 based on your experience</p>
    <ul id=""confidence-levels"">
      <li id=""conf-1"">1: Not at all confident</li>
      <li id=""conf-2"">2: Slightly confident</li>
      <li id=""conf-3"">3: Somewhat confident</li>
      <li id=""conf-4"">4: Very confident</li>
      <li id=""conf-5"">5: Completely confident</li>
    </ul>","5","","","","","","",""
"","","","","","psychophysics","110","246946","0.0-10.0-14.0","977261","","1107","","","","","","","","","","","2","key","2","31.5","640","250","2","YES"
"","","","","","html-keyboard-response","111","247178","0.0-10.0-15.0","977261","","230","","","","","","","","","","
    <p>How confident are you in your response? Press the corresponding keys from 1 to 5 based on your experience</p>
    <ul id=""confidence-levels"">
      <li id=""conf-1"">1: Not at all confident</li>
      <li id=""conf-2"">2: Slightly confident</li>
      <li id=""conf-3"">3: Somewhat confident</li>
      <li id=""conf-4"">4: Very confident</li>
      <li id=""conf-5"">5: Completely confident</li>
    </ul>","5","","","","","","",""
"","","","","","psychophysics","112","248292","0.0-10.0-16.0","977261","","1108","","","","","","","","","","","2","key","2","31.470588235294116","640","250","2","YES"
"","","","","","html-keyboard-response","113","248500","0.0-10.0-17.0","977261","","208","","","","","","","","","","
    <p>How confident are you in your response? Press the corresponding keys from 1 to 5 based on your experience</p>
    <ul id=""confidence-levels"">
      <li id=""conf-1"">1: Not at all confident</li>
      <li id=""conf-2"">2: Slightly confident</li>
      <li id=""conf-3"">3: Somewhat confident</li>
      <li id=""conf-4"">4: Very confident</li>
      <li id=""conf-5"">5: Completely confident</li>
    </ul>","5","","","","","","",""
"","","","","","psychophysics","114","249541","0.0-10.0-18.0","977261","","1036","","","","","","","","","","","2","key","2","29.529411764705884","640","250","2","NO"
"","","","","","html-keyboard-response","115","249737","0.0-10.0-19.0","977261","","195","","","","","","","","","","
    <p>How confident are you in your response? Press the corresponding keys from 1 to 5 based on your experience</p>
    <ul id=""confidence-levels"">
      <li id=""conf-1"">1: Not at all confident</li>
      <li id=""conf-2"">2: Slightly confident</li>
      <li id=""conf-3"">3: Somewhat confident</li>
      <li id=""conf-4"">4: Very confident</li>
      <li id=""conf-5"">5: Completely confident</li>
    </ul>","5","","","","","","",""
"","","","","","psychophysics","116","250780","0.0-10.0-20.0","977261","","1036","","","","","","","","","","","2","key","2","29.558823529411764","640","250","2","NO"
"","","","","","html-keyboard-response","117","250967","0.0-10.0-21.0","977261","","186","","","","","","","","","","
    <p>How confident are you in your response? Press the corresponding keys from 1 to 5 based on your experience</p>
    <ul id=""confidence-levels"">
      <li id=""conf-1"">1: Not at all confident</li>
      <li id=""conf-2"">2: Slightly confident</li>
      <li id=""conf-3"">3: Somewhat confident</li>
      <li id=""conf-4"">4: Very confident</li>
      <li id=""conf-5"">5: Completely confident</li>
    </ul>","5","","","","","","",""
"","","","","","psychophysics","118","251940","0.0-10.0-22.0","977261","","967","","","","","","","","","","","2","key","2","29.375","640","250","1","YES"
"","","","","","html-keyboard-response","119","252145","0.0-10.0-23.0","977261","","203","","","","","","","","","","
    <p>How confident are you in your response? Press the corresponding keys from 1 to 5 based on your experience</p>
    <ul id=""confidence-levels"">
      <li id=""conf-1"">1: Not at all confident</li>
      <li id=""conf-2"">2: Slightly confident</li>
      <li id=""conf-3"">3: Somewhat confident</li>
      <li id=""conf-4"">4: Very confident</li>
      <li id=""conf-5"">5: Completely confident</li>
    </ul>","5","","","","","","",""
"","","","","","psychophysics","120","253244","0.0-10.0-24.0","977261","","1093","","","","","","","","","","","2","key","2","29.75","640","250","2","NO"
"","","","","","html-keyboard-response","121","253411","0.0-10.0-25.0","977261","","167","","","","","","","","","","
    <p>How confident are you in your response? Press the corresponding keys from 1 to 5 based on your experience</p>
    <ul id=""confidence-levels"">
      <li id=""conf-1"">1: Not at all confident</li>
      <li id=""conf-2"">2: Slightly confident</li>
      <li id=""conf-3"">3: Somewhat confident</li>
      <li id=""conf-4"">4: Very confident</li>
      <li id=""conf-5"">5: Completely confident</li>
    </ul>","5","","","","","","",""
"","","","","","psychophysics","122","254414","0.0-10.0-26.0","977261","","997","","","","","","","","","","","2","key","2","29.484848484848484","640","250","2","NO"
"","","","","","html-keyboard-response","123","254622","0.0-10.0-27.0","977261","","207","","","","","","","","","","
    <p>How confident are you in your response? Press the corresponding keys from 1 to 5 based on your experience</p>
    <ul id=""confidence-levels"">
      <li id=""conf-1"">1: Not at all confident</li>
      <li id=""conf-2"">2: Slightly confident</li>
      <li id=""conf-3"">3: Somewhat confident</li>
      <li id=""conf-4"">4: Very confident</li>
      <li id=""conf-5"">5: Completely confident</li>
    </ul>","5","","","","","","",""
"","","","","","psychophysics","124","255658","0.0-10.0-28.0","977261","","1031","","","","","","","","","","","2","key","2","29.647058823529413","640","250","2","NO"
"","","","","","html-keyboard-response","125","255814","0.0-10.0-29.0","977261","","155","","","","","","","","","","
    <p>How confident are you in your response? Press the corresponding keys from 1 to 5 based on your experience</p>
    <ul id=""confidence-levels"">
      <li id=""conf-1"">1: Not at all confident</li>
      <li id=""conf-2"">2: Slightly confident</li>
      <li id=""conf-3"">3: Somewhat confident</li>
      <li id=""conf-4"">4: Very confident</li>
      <li id=""conf-5"">5: Completely confident</li>
    </ul>","5","","","","","","",""
"","","","","","psychophysics","126","256911","0.0-10.0-30.0","977261","","1091","","","","","","","","","","","2","key","2","31.441176470588236","640","250","2","YES"
"","","","","","html-keyboard-response","127","257095","0.0-10.0-31.0","977261","","183","","","","","","","","","","
    <p>How confident are you in your response? Press the corresponding keys from 1 to 5 based on your experience</p>
    <ul id=""confidence-levels"">
      <li id=""conf-1"">1: Not at all confident</li>
      <li id=""conf-2"">2: Slightly confident</li>
      <li id=""conf-3"">3: Somewhat confident</li>
      <li id=""conf-4"">4: Very confident</li>
      <li id=""conf-5"">5: Completely confident</li>
    </ul>","5","","","","","","",""
"","","","","","psychophysics","128","258177","0.0-10.0-32.0","977261","","1076","","","","","","","","","","","2","key","2","29.65714285714286","640","250","1","YES"
"","","","","","html-keyboard-response","129","258345","0.0-10.0-33.0","977261","","167","","","","","","","","","","
    <p>How confident are you in your response? Press the corresponding keys from 1 to 5 based on your experience</p>
    <ul id=""confidence-levels"">
      <li id=""conf-1"">1: Not at all confident</li>
      <li id=""conf-2"">2: Slightly confident</li>
      <li id=""conf-3"">3: Somewhat confident</li>
      <li id=""conf-4"">4: Very confident</li>
      <li id=""conf-5"">5: Completely confident</li>
    </ul>","5","","","","","","",""
"","","","","","psychophysics","130","259368","0.0-10.0-34.0","977261","","1016","","","","","","","","","","","2","key","2","29.470588235294116","640","250","1","YES"
"","","","","","html-keyboard-response","131","259554","0.0-10.0-35.0","977261","","186","","","","","","","","","","
    <p>How confident are you in your response? Press the corresponding keys from 1 to 5 based on your experience</p>
    <ul id=""confidence-levels"">
      <li id=""conf-1"">1: Not at all confident</li>
      <li id=""conf-2"">2: Slightly confident</li>
      <li id=""conf-3"">3: Somewhat confident</li>
      <li id=""conf-4"">4: Very confident</li>
      <li id=""conf-5"">5: Completely confident</li>
    </ul>","5","","","","","","",""
"","","","","","psychophysics","132","260608","0.0-10.0-36.0","977261","","1047","","","","","","","","","","","2","key","2","29.685714285714287","640","250","1","YES"
"","","","","","html-keyboard-response","133","260769","0.0-10.0-37.0","977261","","161","","","","","","","","","","
    <p>How confident are you in your response? Press the corresponding keys from 1 to 5 based on your experience</p>
    <ul id=""confidence-levels"">
      <li id=""conf-1"">1: Not at all confident</li>
      <li id=""conf-2"">2: Slightly confident</li>
      <li id=""conf-3"">3: Somewhat confident</li>
      <li id=""conf-4"">4: Very confident</li>
      <li id=""conf-5"">5: Completely confident</li>
    </ul>","5","","","","","","",""
"","","","","","psychophysics","134","261877","0.0-10.0-38.0","977261","","1101","","","","","","","","","","","2","key","2","31.545454545454547","640","250","2","YES"
"","","","","","html-keyboard-response","135","262050","0.0-10.0-39.0","977261","","173","","","","","","","","","","
    <p>How confident are you in your response? Press the corresponding keys from 1 to 5 based on your experience</p>
    <ul id=""confidence-levels"">
      <li id=""conf-1"">1: Not at all confident</li>
      <li id=""conf-2"">2: Slightly confident</li>
      <li id=""conf-3"">3: Somewhat confident</li>
      <li id=""conf-4"">4: Very confident</li>
      <li id=""conf-5"">5: Completely confident</li>
    </ul>","5","","","","","","",""
"","","","","","psychophysics","136","263069","0.0-10.0-40.0","977261","","1014","","","","","","","","","","","2","key","2","29.484848484848484","640","250","2","NO"
"","","","","","html-keyboard-response","137","263242","0.0-10.0-41.0","977261","","172","","","","","","","","","","
    <p>How confident are you in your response? Press the corresponding keys from 1 to 5 based on your experience</p>
    <ul id=""confidence-levels"">
      <li id=""conf-1"">1: Not at all confident</li>
      <li id=""conf-2"">2: Slightly confident</li>
      <li id=""conf-3"">3: Somewhat confident</li>
      <li id=""conf-4"">4: Very confident</li>
      <li id=""conf-5"">5: Completely confident</li>
    </ul>","5","","","","","","",""
"","","","","","psychophysics","138","264266","0.0-10.0-42.0","977261","","1018","","","","","","","","","","","2","key","2","31.34375","640","250","2","YES"
"","","","","","html-keyboard-response","139","264454","0.0-10.0-43.0","977261","","187","","","","","","","","","","
    <p>How confident are you in your response? Press the corresponding keys from 1 to 5 based on your experience</p>
    <ul id=""confidence-levels"">
      <li id=""conf-1"">1: Not at all confident</li>
      <li id=""conf-2"">2: Slightly confident</li>
      <li id=""conf-3"">3: Somewhat confident</li>
      <li id=""conf-4"">4: Very confident</li>
      <li id=""conf-5"">5: Completely confident</li>
    </ul>","5","","","","","","",""
"","","","","","psychophysics","140","265395","0.0-10.0-44.0","977261","","936","","","","","","","","","","","2","key","2","31.20689655172414","640","250","2","YES"
"","","","","","html-keyboard-response","141","265619","0.0-10.0-45.0","977261","","223","","","","","","","","","","
    <p>How confident are you in your response? Press the corresponding keys from 1 to 5 based on your experience</p>
    <ul id=""confidence-levels"">
      <li id=""conf-1"">1: Not at all confident</li>
      <li id=""conf-2"">2: Slightly confident</li>
      <li id=""conf-3"">3: Somewhat confident</li>
      <li id=""conf-4"">4: Very confident</li>
      <li id=""conf-5"">5: Completely confident</li>
    </ul>","5","","","","","","",""
"","","","","","psychophysics","142","266580","0.0-10.0-46.0","977261","","953","","","","","","","","","","","2","key","2","29.15625","640","250","1","YES"
"","","","","","html-keyboard-response","143","266811","0.0-10.0-47.0","977261","","229","","","","","","","","","","
    <p>How confident are you in your response? Press the corresponding keys from 1 to 5 based on your experience</p>
    <ul id=""confidence-levels"">
      <li id=""conf-1"">1: Not at all confident</li>
      <li id=""conf-2"">2: Slightly confident</li>
      <li id=""conf-3"">3: Somewhat confident</li>
      <li id=""conf-4"">4: Very confident</li>
      <li id=""conf-5"">5: Completely confident</li>
    </ul>","5","","","","","","",""
"","","","","","psychophysics","144","267761","0.0-10.0-48.0","977261","","945","","","","","","","","","","","2","key","2","29.161290322580644","640","250","1","YES"
"","","","","","html-keyboard-response","145","267891","0.0-10.0-49.0","977261","","128","","","","","","","","","","
    <p>How confident are you in your response? Press the corresponding keys from 1 to 5 based on your experience</p>
    <ul id=""confidence-levels"">
      <li id=""conf-1"">1: Not at all confident</li>
      <li id=""conf-2"">2: Slightly confident</li>
      <li id=""conf-3"">3: Somewhat confident</li>
      <li id=""conf-4"">4: Very confident</li>
      <li id=""conf-5"">5: Completely confident</li>
    </ul>","5","","","","","","",""
"","","","","","psychophysics","146","268843","0.0-10.0-50.0","977261","","946","","","","","","","","","","","2","key","2","29.28125","640","250","1","YES"
"","","","","","html-keyboard-response","147","268989","0.0-10.0-51.0","977261","","146","","","","","","","","","","
    <p>How confident are you in your response? Press the corresponding keys from 1 to 5 based on your experience</p>
    <ul id=""confidence-levels"">
      <li id=""conf-1"">1: Not at all confident</li>
      <li id=""conf-2"">2: Slightly confident</li>
      <li id=""conf-3"">3: Somewhat confident</li>
      <li id=""conf-4"">4: Very confident</li>
      <li id=""conf-5"">5: Completely confident</li>
    </ul>","5","","","","","","",""
"","","","","","psychophysics","148","269849","0.0-10.0-52.0","977261","","854","","","","","","","","","","","2","key","2","28.896551724137932","640","250","1","YES"
"","","","","","html-keyboard-response","149","269985","0.0-10.0-53.0","977261","","135","","","","","","","","","","
    <p>How confident are you in your response? Press the corresponding keys from 1 to 5 based on your experience</p>
    <ul id=""confidence-levels"">
      <li id=""conf-1"">1: Not at all confident</li>
      <li id=""conf-2"">2: Slightly confident</li>
      <li id=""conf-3"">3: Somewhat confident</li>
      <li id=""conf-4"">4: Very confident</li>
      <li id=""conf-5"">5: Completely confident</li>
    </ul>","5","","","","","","",""
"","","","","","psychophysics","150","270883","0.0-10.0-54.0","977261","","893","","","","","","","","","","","2","key","2","29","640","250","2","NO"
"","","","","","html-keyboard-response","151","271061","0.0-10.0-55.0","977261","","176","","","","","","","","","","
    <p>How confident are you in your response? Press the corresponding keys from 1 to 5 based on your experience</p>
    <ul id=""confidence-levels"">
      <li id=""conf-1"">1: Not at all confident</li>
      <li id=""conf-2"">2: Slightly confident</li>
      <li id=""conf-3"">3: Somewhat confident</li>
      <li id=""conf-4"">4: Very confident</li>
      <li id=""conf-5"">5: Completely confident</li>
    </ul>","5","","","","","","",""
"","","","","","psychophysics","152","271998","0.0-10.0-56.0","977261","","932","","","","","","","","","","","2","key","2","31.17241379310345","640","250","2","YES"
"","","","","","html-keyboard-response","153","272127","0.0-10.0-57.0","977261","","128","","","","","","","","","","
    <p>How confident are you in your response? Press the corresponding keys from 1 to 5 based on your experience</p>
    <ul id=""confidence-levels"">
      <li id=""conf-1"">1: Not at all confident</li>
      <li id=""conf-2"">2: Slightly confident</li>
      <li id=""conf-3"">3: Somewhat confident</li>
      <li id=""conf-4"">4: Very confident</li>
      <li id=""conf-5"">5: Completely confident</li>
    </ul>","5","","","","","","",""
"","","","","","psychophysics","154","272987","0.0-10.0-58.0","977261","","854","","","","","","","","","","","2","key","2","31.076923076923077","640","250","2","YES"
"","","","","","html-keyboard-response","155","273146","0.0-10.0-59.0","977261","","157","","","","","","","","","","
    <p>How confident are you in your response? Press the corresponding keys from 1 to 5 based on your experience</p>
    <ul id=""confidence-levels"">
      <li id=""conf-1"">1: Not at all confident</li>
      <li id=""conf-2"">2: Slightly confident</li>
      <li id=""conf-3"">3: Somewhat confident</li>
      <li id=""conf-4"">4: Very confident</li>
      <li id=""conf-5"">5: Completely confident</li>
    </ul>","5","","","","","","",""
"","","","","","psychophysics","156","273976","0.0-10.0-60.0","977261","","824","","","","","","","","","","","2","key","2","28.714285714285715","640","250","2","NO"
"","","","","","html-keyboard-response","157","274144","0.0-10.0-61.0","977261","","167","","","","","","","","","","
    <p>How confident are you in your response? Press the corresponding keys from 1 to 5 based on your experience</p>
    <ul id=""confidence-levels"">
      <li id=""conf-1"">1: Not at all confident</li>
      <li id=""conf-2"">2: Slightly confident</li>
      <li id=""conf-3"">3: Somewhat confident</li>
      <li id=""conf-4"">4: Very confident</li>
      <li id=""conf-5"">5: Completely confident</li>
    </ul>","5","","","","","","",""
"","","","","","psychophysics","158","274994","0.0-10.0-62.0","977261","","844","","","","","","","","","","","2","key","2","28.75","640","250","2","NO"
"","","","","","html-keyboard-response","159","275130","0.0-10.0-63.0","977261","","134","","","","","","","","","","
    <p>How confident are you in your response? Press the corresponding keys from 1 to 5 based on your experience</p>
    <ul id=""confidence-levels"">
      <li id=""conf-1"">1: Not at all confident</li>
      <li id=""conf-2"">2: Slightly confident</li>
      <li id=""conf-3"">3: Somewhat confident</li>
      <li id=""conf-4"">4: Very confident</li>
      <li id=""conf-5"">5: Completely confident</li>
    </ul>","5","","","","","","",""
"","","","","","psychophysics","160","276353","0.0-10.0-64.0","977261","","1211","","","","","","","","","","","2","key","2","29.925","640","250","1","YES"
"","","","","","html-keyboard-response","161","278182","0.0-10.0-65.0","977261","","1825","","","","","","","","","","
    <p>How confident are you in your response? Press the corresponding keys from 1 to 5 based on your experience</p>
    <ul id=""confidence-levels"">
      <li id=""conf-1"">1: Not at all confident</li>
      <li id=""conf-2"">2: Slightly confident</li>
      <li id=""conf-3"">3: Somewhat confident</li>
      <li id=""conf-4"">4: Very confident</li>
      <li id=""conf-5"">5: Completely confident</li>
    </ul>","5","","","","","","",""
"","","","","","psychophysics","162","279557","0.0-10.0-66.0","977261","","1369","","","","","","","","","","","2","key","2","30.454545454545453","640","250","1","YES"
"","","","","","html-keyboard-response","163","279745","0.0-10.0-67.0","977261","","187","","","","","","","","","","
    <p>How confident are you in your response? Press the corresponding keys from 1 to 5 based on your experience</p>
    <ul id=""confidence-levels"">
      <li id=""conf-1"">1: Not at all confident</li>
      <li id=""conf-2"">2: Slightly confident</li>
      <li id=""conf-3"">3: Somewhat confident</li>
      <li id=""conf-4"">4: Very confident</li>
      <li id=""conf-5"">5: Completely confident</li>
    </ul>","5","","","","","","",""
"","","","","","psychophysics","164","280659","0.0-10.0-68.0","977261","","908","","","","","","","","","","","2","key","2","29.066666666666666","640","250","2","NO"
"","","","","","html-keyboard-response","165","280811","0.0-10.0-69.0","977261","","151","","","","","","","","","","
    <p>How confident are you in your response? Press the corresponding keys from 1 to 5 based on your experience</p>
    <ul id=""confidence-levels"">
      <li id=""conf-1"">1: Not at all confident</li>
      <li id=""conf-2"">2: Slightly confident</li>
      <li id=""conf-3"">3: Somewhat confident</li>
      <li id=""conf-4"">4: Very confident</li>
      <li id=""conf-5"">5: Completely confident</li>
    </ul>","5","","","","","","",""
"","","","","","psychophysics","166","281662","0.0-10.0-70.0","977261","","845","","","","","","","","","","","2","key","2","28.892857142857142","640","250","2","NO"
"","","","","","html-keyboard-response","167","281914","0.0-10.0-71.0","977261","","251","","","","","","","","","","
    <p>How confident are you in your response? Press the corresponding keys from 1 to 5 based on your experience</p>
    <ul id=""confidence-levels"">
      <li id=""conf-1"">1: Not at all confident</li>
      <li id=""conf-2"">2: Slightly confident</li>
      <li id=""conf-3"">3: Somewhat confident</li>
      <li id=""conf-4"">4: Very confident</li>
      <li id=""conf-5"">5: Completely confident</li>
    </ul>","5","","","","","","",""
"","","","","","psychophysics","168","282797","0.0-10.0-72.0","977261","","876","","","","","","","","","","","2","key","2","31.11111111111111","640","250","2","YES"
"","","","","","html-keyboard-response","169","282951","0.0-10.0-73.0","977261","","154","","","","","","","","","","
    <p>How confident are you in your response? Press the corresponding keys from 1 to 5 based on your experience</p>
    <ul id=""confidence-levels"">
      <li id=""conf-1"">1: Not at all confident</li>
      <li id=""conf-2"">2: Slightly confident</li>
      <li id=""conf-3"">3: Somewhat confident</li>
      <li id=""conf-4"">4: Very confident</li>
      <li id=""conf-5"">5: Completely confident</li>
    </ul>","5","","","","","","",""
"","","","","","psychophysics","170","283859","0.0-10.0-74.0","977261","","902","","","","","","","","","","","2","key","2","29.066666666666666","640","250","2","NO"
"","","","","","html-keyboard-response","171","284031","0.0-10.0-75.0","977261","","172","","","","","","","","","","
    <p>How confident are you in your response? Press the corresponding keys from 1 to 5 based on your experience</p>
    <ul id=""confidence-levels"">
      <li id=""conf-1"">1: Not at all confident</li>
      <li id=""conf-2"">2: Slightly confident</li>
      <li id=""conf-3"">3: Somewhat confident</li>
      <li id=""conf-4"">4: Very confident</li>
      <li id=""conf-5"">5: Completely confident</li>
    </ul>","5","","","","","","",""
"","","","","","psychophysics","172","284985","0.0-10.0-76.0","977261","","948","","","","","","","","","","","2","key","2","29.225806451612904","640","250","1","YES"
"","","","","","html-keyboard-response","173","285207","0.0-10.0-77.0","977261","","221","","","","","","","","","","
    <p>How confident are you in your response? Press the corresponding keys from 1 to 5 based on your experience</p>
    <ul id=""confidence-levels"">
      <li id=""conf-1"">1: Not at all confident</li>
      <li id=""conf-2"">2: Slightly confident</li>
      <li id=""conf-3"">3: Somewhat confident</li>
      <li id=""conf-4"">4: Very confident</li>
      <li id=""conf-5"">5: Completely confident</li>
    </ul>","5","","","","","","",""
"","","","","","html-keyboard-response","174","289347","0.0-11.0","977261","","4139","","","","","","","","","","Your average response time is null ms You are doing great"," ","","","","","","",""
"","","","","","html-button-response","175","359447","0.0-12.0","977261","","70098","","","","","","","","","","<p>You have successfully completed one block of the experiment. The next part of the experiment can be started in <span id=""clock"">1:00</span> <br>You can take a break for a minute or more if you like and Press continue when you are ready","0","","","","","","",""
"","","","","","psychophysics","176","361750","0.0-13.0-0.0","977261","","2299","","","","","","","","","","","2","key","2","31.63888888888889","640","250","1","25"
"","","","","","html-keyboard-response","177","362272","0.0-13.0-1.0","977261","","520","","","","","","","","","","
    <p>How confident are you in your response? Press the corresponding keys from 1 to 5 based on your experience</p>
    <ul id=""confidence-levels"">
      <li id=""conf-1"">1: Not at all confident</li>
      <li id=""conf-2"">2: Slightly confident</li>
      <li id=""conf-3"">3: Somewhat confident</li>
      <li id=""conf-4"">4: Very confident</li>
      <li id=""conf-5"">5: Completely confident</li>
    </ul>","5","","","","","","",""
"","","","","","psychophysics","178","363223","0.0-13.0-2.0","977261","","940","","","","","","","","","","","2","key","2","29.28125","640","250","1","50"
"","","","","","html-keyboard-response","179","363337","0.0-13.0-3.0","977261","","113","","","","","","","","","","
    <p>How confident are you in your response? Press the corresponding keys from 1 to 5 based on your experience</p>
    <ul id=""confidence-levels"">
      <li id=""conf-1"">1: Not at all confident</li>
      <li id=""conf-2"">2: Slightly confident</li>
      <li id=""conf-3"">3: Somewhat confident</li>
      <li id=""conf-4"">4: Very confident</li>
      <li id=""conf-5"">5: Completely confident</li>
    </ul>","5","","","","","","",""
"","","","","","psychophysics","180","364255","0.0-13.0-4.0","977261","","909","","","","","","","","","","","2","key","2","29.066666666666666","640","250","1","25"
"","","","","","html-keyboard-response","181","364401","0.0-13.0-5.0","977261","","145","","","","","","","","","","
    <p>How confident are you in your response? Press the corresponding keys from 1 to 5 based on your experience</p>
    <ul id=""confidence-levels"">
      <li id=""conf-1"">1: Not at all confident</li>
      <li id=""conf-2"">2: Slightly confident</li>
      <li id=""conf-3"">3: Somewhat confident</li>
      <li id=""conf-4"">4: Very confident</li>
      <li id=""conf-5"">5: Completely confident</li>
    </ul>","5","","","","","","",""
"","","","","","psychophysics","182","365936","0.0-13.0-6.0","977261","","1528","","","","","","","","","","","2","key","2","30.755102040816325","640","250","1","200"
"","","","","","html-keyboard-response","183","366081","0.0-13.0-7.0","977261","","144","","","","","","","","","","
    <p>How confident are you in your response? Press the corresponding keys from 1 to 5 based on your experience</p>
    <ul id=""confidence-levels"">
      <li id=""conf-1"">1: Not at all confident</li>
      <li id=""conf-2"">2: Slightly confident</li>
      <li id=""conf-3"">3: Somewhat confident</li>
      <li id=""conf-4"">4: Very confident</li>
      <li id=""conf-5"">5: Completely confident</li>
    </ul>","5","","","","","","",""
"","","","","","psychophysics","184","367141","0.0-13.0-8.0","977261","","1054","","","","","","","","","","","2","key","2","29.62857142857143","640","250","1","50"
"","","","","","html-keyboard-response","185","367255","0.0-13.0-9.0","977261","","113","","","","","","","","","","
    <p>How confident are you in your response? Press the corresponding keys from 1 to 5 based on your experience</p>
    <ul id=""confidence-levels"">
      <li id=""conf-1"">1: Not at all confident</li>
      <li id=""conf-2"">2: Slightly confident</li>
      <li id=""conf-3"">3: Somewhat confident</li>
      <li id=""conf-4"">4: Very confident</li>
      <li id=""conf-5"">5: Completely confident</li>
    </ul>","5","","","","","","",""
"","","","","","psychophysics","186","368196","0.0-13.0-10.0","977261","","932","","","","","","","","","","","2","key","2","29.225806451612904","640","250","1","50"
"","","","","","html-keyboard-response","187","368283","0.0-13.0-11.0","977261","","86","","","","","","","","","","
    <p>How confident are you in your response? Press the corresponding keys from 1 to 5 based on your experience</p>
    <ul id=""confidence-levels"">
      <li id=""conf-1"">1: Not at all confident</li>
      <li id=""conf-2"">2: Slightly confident</li>
      <li id=""conf-3"">3: Somewhat confident</li>
      <li id=""conf-4"">4: Very confident</li>
      <li id=""conf-5"">5: Completely confident</li>
    </ul>","5","","","","","","",""
"","","","","","psychophysics","188","369310","0.0-13.0-12.0","977261","","1022","","","","","","","","","","","2","key","2","29.484848484848484","640","250","1","100"
"","","","","","html-keyboard-response","189","369398","0.0-13.0-13.0","977261","","87","","","","","","","","","","
    <p>How confident are you in your response? Press the corresponding keys from 1 to 5 based on your experience</p>
    <ul id=""confidence-levels"">
      <li id=""conf-1"">1: Not at all confident</li>
      <li id=""conf-2"">2: Slightly confident</li>
      <li id=""conf-3"">3: Somewhat confident</li>
      <li id=""conf-4"">4: Very confident</li>
      <li id=""conf-5"">5: Completely confident</li>
    </ul>","5","","","","","","",""
"","","","","","psychophysics","190","370319","0.0-13.0-14.0","977261","","915","","","","","","","","","","","2","key","2","29.033333333333335","640","250","1","50"
"","","","","","html-keyboard-response","191","370413","0.0-13.0-15.0","977261","","93","","","","","","","","","","
    <p>How confident are you in your response? Press the corresponding keys from 1 to 5 based on your experience</p>
    <ul id=""confidence-levels"">
      <li id=""conf-1"">1: Not at all confident</li>
      <li id=""conf-2"">2: Slightly confident</li>
      <li id=""conf-3"">3: Somewhat confident</li>
      <li id=""conf-4"">4: Very confident</li>
      <li id=""conf-5"">5: Completely confident</li>
    </ul>","5","","","","","","",""
"","","","","","psychophysics","192","371193","0.0-13.0-16.0","977261","","774","","","","","","","","","","","2","key","2","28.555555555555557","640","250","1","80"
"","","","","","html-keyboard-response","193","371336","0.0-13.0-17.0","977261","","142","","","","","","","","","","
    <p>How confident are you in your response? Press the corresponding keys from 1 to 5 based on your experience</p>
    <ul id=""confidence-levels"">
      <li id=""conf-1"">1: Not at all confident</li>
      <li id=""conf-2"">2: Slightly confident</li>
      <li id=""conf-3"">3: Somewhat confident</li>
      <li id=""conf-4"">4: Very confident</li>
      <li id=""conf-5"">5: Completely confident</li>
    </ul>","5","","","","","","",""
"","","","","","psychophysics","194","372347","0.0-13.0-18.0","977261","","1006","","","","","","","","","","","2","key","2","29.424242424242426","640","250","1","300"
"","","","","","html-keyboard-response","195","372709","0.0-13.0-19.0","977261","","361","","","","","","","","","","
    <p>How confident are you in your response? Press the corresponding keys from 1 to 5 based on your experience</p>
    <ul id=""confidence-levels"">
      <li id=""conf-1"">1: Not at all confident</li>
      <li id=""conf-2"">2: Slightly confident</li>
      <li id=""conf-3"">3: Somewhat confident</li>
      <li id=""conf-4"">4: Very confident</li>
      <li id=""conf-5"">5: Completely confident</li>
    </ul>","5","","","","","","",""
"","","","","","psychophysics","196","373768","0.0-13.0-20.0","977261","","1053","","","","","","","","","","","2","key","2","29.529411764705884","640","250","1","150"
"","","","","","html-keyboard-response","197","373856","0.0-13.0-21.0","977261","","87","","","","","","","","","","
    <p>How confident are you in your response? Press the corresponding keys from 1 to 5 based on your experience</p>
    <ul id=""confidence-levels"">
      <li id=""conf-1"">1: Not at all confident</li>
      <li id=""conf-2"">2: Slightly confident</li>
      <li id=""conf-3"">3: Somewhat confident</li>
      <li id=""conf-4"">4: Very confident</li>
      <li id=""conf-5"">5: Completely confident</li>
    </ul>","5","","","","","","",""
"","","","","","psychophysics","198","374738","0.0-13.0-22.0","977261","","875","","","","","","","","","","","2","key","2","28.862068965517242","640","250","1","80"
"","","","","","html-keyboard-response","199","374849","0.0-13.0-23.0","977261","","109","","","","","","","","","","
    <p>How confident are you in your response? Press the corresponding keys from 1 to 5 based on your experience</p>
    <ul id=""confidence-levels"">
      <li id=""conf-1"">1: Not at all confident</li>
      <li id=""conf-2"">2: Slightly confident</li>
      <li id=""conf-3"">3: Somewhat confident</li>
      <li id=""conf-4"">4: Very confident</li>
      <li id=""conf-5"">5: Completely confident</li>
    </ul>","5","","","","","","",""
"","","","","","psychophysics","200","376036","0.0-13.0-24.0","977261","","1182","","","","","","","","","","","2","key","2","29.973684210526315","640","250","1","200"
"","","","","","html-keyboard-response","201","376160","0.0-13.0-25.0","977261","","123","","","","","","","","","","
    <p>How confident are you in your response? Press the corresponding keys from 1 to 5 based on your experience</p>
    <ul id=""confidence-levels"">
      <li id=""conf-1"">1: Not at all confident</li>
      <li id=""conf-2"">2: Slightly confident</li>
      <li id=""conf-3"">3: Somewhat confident</li>
      <li id=""conf-4"">4: Very confident</li>
      <li id=""conf-5"">5: Completely confident</li>
    </ul>","5","","","","","","",""
"","","","","","psychophysics","202","377221","0.0-13.0-26.0","977261","","1054","","","","","","","","","","","2","key","2","29.62857142857143","640","250","1","150"
"","","","","","html-keyboard-response","203","377308","0.0-13.0-27.0","977261","","86","","","","","","","","","","
    <p>How confident are you in your response? Press the corresponding keys from 1 to 5 based on your experience</p>
    <ul id=""confidence-levels"">
      <li id=""conf-1"">1: Not at all confident</li>
      <li id=""conf-2"">2: Slightly confident</li>
      <li id=""conf-3"">3: Somewhat confident</li>
      <li id=""conf-4"">4: Very confident</li>
      <li id=""conf-5"">5: Completely confident</li>
    </ul>","5","","","","","","",""
"","","","","","psychophysics","204","378259","0.0-13.0-28.0","977261","","944","","","","","","","","","","","2","key","2","29.3125","640","250","1","100"
"","","","","","html-keyboard-response","205","378310","0.0-13.0-29.0","977261","","50","","","","","","","","","","
    <p>How confident are you in your response? Press the corresponding keys from 1 to 5 based on your experience</p>
    <ul id=""confidence-levels"">
      <li id=""conf-1"">1: Not at all confident</li>
      <li id=""conf-2"">2: Slightly confident</li>
      <li id=""conf-3"">3: Somewhat confident</li>
      <li id=""conf-4"">4: Very confident</li>
      <li id=""conf-5"">5: Completely confident</li>
    </ul>","5","","","","","","",""
"","","","","","psychophysics","206","379138","0.0-13.0-30.0","977261","","824","","","","","","","","","","","2","key","2","28.571428571428573","640","250","1","100"
"","","","","","html-keyboard-response","207","379195","0.0-13.0-31.0","977261","","57","","","","","","","","","","
    <p>How confident are you in your response? Press the corresponding keys from 1 to 5 based on your experience</p>
    <ul id=""confidence-levels"">
      <li id=""conf-1"">1: Not at all confident</li>
      <li id=""conf-2"">2: Slightly confident</li>
      <li id=""conf-3"">3: Somewhat confident</li>
      <li id=""conf-4"">4: Very confident</li>
      <li id=""conf-5"">5: Completely confident</li>
    </ul>","5","","","","","","",""
"","","","","","psychophysics","208","380062","0.0-13.0-32.0","977261","","861","","","","","","","","","","","2","key","2","28.928571428571427","640","250","1","25"
"","","","","","html-keyboard-response","209","380155","0.0-13.0-33.0","977261","","92","","","","","","","","","","
    <p>How confident are you in your response? Press the corresponding keys from 1 to 5 based on your experience</p>
    <ul id=""confidence-levels"">
      <li id=""conf-1"">1: Not at all confident</li>
      <li id=""conf-2"">2: Slightly confident</li>
      <li id=""conf-3"">3: Somewhat confident</li>
      <li id=""conf-4"">4: Very confident</li>
      <li id=""conf-5"">5: Completely confident</li>
    </ul>","5","","","","","","",""
"","","","","","psychophysics","210","380955","0.0-13.0-34.0","977261","","794","","","","","","","","","","","2","key","2","28.51851851851852","640","250","1","150"
"","","","","","html-keyboard-response","211","381005","0.0-13.0-35.0","977261","","49","","","","","","","","","","
    <p>How confident are you in your response? Press the corresponding keys from 1 to 5 based on your experience</p>
    <ul id=""confidence-levels"">
      <li id=""conf-1"">1: Not at all confident</li>
      <li id=""conf-2"">2: Slightly confident</li>
      <li id=""conf-3"">3: Somewhat confident</li>
      <li id=""conf-4"">4: Very confident</li>
      <li id=""conf-5"">5: Completely confident</li>
    </ul>","5","","","","","","",""
"","","","","","psychophysics","212","381821","0.0-13.0-36.0","977261","","812","","","","","","","","","","","2","key","2","28.555555555555557","640","250","1","150"
"","","","","","html-keyboard-response","213","381831","0.0-13.0-37.0","977261","","9","","","","","","","","","","
    <p>How confident are you in your response? Press the corresponding keys from 1 to 5 based on your experience</p>
    <ul id=""confidence-levels"">
      <li id=""conf-1"">1: Not at all confident</li>
      <li id=""conf-2"">2: Slightly confident</li>
      <li id=""conf-3"">3: Somewhat confident</li>
      <li id=""conf-4"">4: Very confident</li>
      <li id=""conf-5"">5: Completely confident</li>
    </ul>","5","","","","","","",""
"","","","","","psychophysics","214","382803","0.0-13.0-38.0","977261","","967","","","","","","","","","","","2","key","2","29.1875","640","250","1","300"
"","","","","","html-keyboard-response","215","382843","0.0-13.0-39.0","977261","","38","","","","","","","","","","
    <p>How confident are you in your response? Press the corresponding keys from 1 to 5 based on your experience</p>
    <ul id=""confidence-levels"">
      <li id=""conf-1"">1: Not at all confident</li>
      <li id=""conf-2"">2: Slightly confident</li>
      <li id=""conf-3"">3: Somewhat confident</li>
      <li id=""conf-4"">4: Very confident</li>
      <li id=""conf-5"">5: Completely confident</li>
    </ul>","5","","","","","","",""
"","","","","","psychophysics","216","383803","0.0-13.0-40.0","977261","","955","","","","","","","","","","","2","key","2","29.225806451612904","640","250","1","25"
"","","","","","html-keyboard-response","217","383855","0.0-13.0-41.0","977261","","51","","","","","","","","","","
    <p>How confident are you in your response? Press the corresponding keys from 1 to 5 based on your experience</p>
    <ul id=""confidence-levels"">
      <li id=""conf-1"">1: Not at all confident</li>
      <li id=""conf-2"">2: Slightly confident</li>
      <li id=""conf-3"">3: Somewhat confident</li>
      <li id=""conf-4"">4: Very confident</li>
      <li id=""conf-5"">5: Completely confident</li>
    </ul>","5","","","","","","",""
"","","","","","psychophysics","218","384706","0.0-13.0-42.0","977261","","847","","","","","","","","","","","2","key","2","28.857142857142858","640","250","1","150"
"","","","","","html-keyboard-response","219","384740","0.0-13.0-43.0","977261","","33","","","","","","","","","","
    <p>How confident are you in your response? Press the corresponding keys from 1 to 5 based on your experience</p>
    <ul id=""confidence-levels"">
      <li id=""conf-1"">1: Not at all confident</li>
      <li id=""conf-2"">2: Slightly confident</li>
      <li id=""conf-3"">3: Somewhat confident</li>
      <li id=""conf-4"">4: Very confident</li>
      <li id=""conf-5"">5: Completely confident</li>
    </ul>","5","","","","","","",""
"","","","","","psychophysics","220","385807","0.0-13.0-44.0","977261","","1063","","","","","","","","","","","2","key","2","29.485714285714284","640","250","1","200"
"","","","","","html-keyboard-response","221","385893","0.0-13.0-45.0","977261","","85","","","","","","","","","","
    <p>How confident are you in your response? Press the corresponding keys from 1 to 5 based on your experience</p>
    <ul id=""confidence-levels"">
      <li id=""conf-1"">1: Not at all confident</li>
      <li id=""conf-2"">2: Slightly confident</li>
      <li id=""conf-3"">3: Somewhat confident</li>
      <li id=""conf-4"">4: Very confident</li>
      <li id=""conf-5"">5: Completely confident</li>
    </ul>","5","","","","","","",""
"","","","","","psychophysics","222","387206","0.0-13.0-46.0","977261","","1308","","","","","","","","","","","2","key","2","30.357142857142858","640","250","1","300"
"","","","","","html-keyboard-response","223","387273","0.0-13.0-47.0","977261","","66","","","","","","","","","","
    <p>How confident are you in your response? Press the corresponding keys from 1 to 5 based on your experience</p>
    <ul id=""confidence-levels"">
      <li id=""conf-1"">1: Not at all confident</li>
      <li id=""conf-2"">2: Slightly confident</li>
      <li id=""conf-3"">3: Somewhat confident</li>
      <li id=""conf-4"">4: Very confident</li>
      <li id=""conf-5"">5: Completely confident</li>
    </ul>","5","","","","","","",""
"","","","","","psychophysics","224","388288","0.0-13.0-48.0","977261","","1010","","","","","","","","","","","2","key","2","29.424242424242426","640","250","1","80"
"","","","","","html-keyboard-response","225","388334","0.0-13.0-49.0","977261","","45","","","","","","","","","","
    <p>How confident are you in your response? Press the corresponding keys from 1 to 5 based on your experience</p>
    <ul id=""confidence-levels"">
      <li id=""conf-1"">1: Not at all confident</li>
      <li id=""conf-2"">2: Slightly confident</li>
      <li id=""conf-3"">3: Somewhat confident</li>
      <li id=""conf-4"">4: Very confident</li>
      <li id=""conf-5"">5: Completely confident</li>
    </ul>","5","","","","","","",""
"","","","","","psychophysics","226","389330","0.0-13.0-50.0","977261","","992","","","","","","","","","","","2","key","2","29.3125","640","250","1","100"
"","","","","","html-keyboard-response","227","389376","0.0-13.0-51.0","977261","","45","","","","","","","","","","
    <p>How confident are you in your response? Press the corresponding keys from 1 to 5 based on your experience</p>
    <ul id=""confidence-levels"">
      <li id=""conf-1"">1: Not at all confident</li>
      <li id=""conf-2"">2: Slightly confident</li>
      <li id=""conf-3"">3: Somewhat confident</li>
      <li id=""conf-4"">4: Very confident</li>
      <li id=""conf-5"">5: Completely confident</li>
    </ul>","5","","","","","","",""
"","","","","","psychophysics","228","390640","0.0-13.0-52.0","977261","","1261","","","","","","","","","","","2","key","2","30.146341463414632","640","250","1","300"
"","","","","","html-keyboard-response","229","390730","0.0-13.0-53.0","977261","","89","","","","","","","","","","
    <p>How confident are you in your response? Press the corresponding keys from 1 to 5 based on your experience</p>
    <ul id=""confidence-levels"">
      <li id=""conf-1"">1: Not at all confident</li>
      <li id=""conf-2"">2: Slightly confident</li>
      <li id=""conf-3"">3: Somewhat confident</li>
      <li id=""conf-4"">4: Very confident</li>
      <li id=""conf-5"">5: Completely confident</li>
    </ul>","5","","","","","","",""
"","","","","","psychophysics","230","391737","0.0-13.0-54.0","977261","","1002","","","","","","","","","","","2","key","2","29.393939393939394","640","250","1","50"
"","","","","","html-keyboard-response","231","391835","0.0-13.0-55.0","977261","","97","","","","","","","","","","
    <p>How confident are you in your response? Press the corresponding keys from 1 to 5 based on your experience</p>
    <ul id=""confidence-levels"">
      <li id=""conf-1"">1: Not at all confident</li>
      <li id=""conf-2"">2: Slightly confident</li>
      <li id=""conf-3"">3: Somewhat confident</li>
      <li id=""conf-4"">4: Very confident</li>
      <li id=""conf-5"">5: Completely confident</li>
    </ul>","5","","","","","","",""
"","","","","","psychophysics","232","392716","0.0-13.0-56.0","977261","","876","","","","","","","","","","","2","key","2","28.9","640","250","1","80"
"","","","","","html-keyboard-response","233","392779","0.0-13.0-57.0","977261","","62","","","","","","","","","","
    <p>How confident are you in your response? Press the corresponding keys from 1 to 5 based on your experience</p>
    <ul id=""confidence-levels"">
      <li id=""conf-1"">1: Not at all confident</li>
      <li id=""conf-2"">2: Slightly confident</li>
      <li id=""conf-3"">3: Somewhat confident</li>
      <li id=""conf-4"">4: Very confident</li>
      <li id=""conf-5"">5: Completely confident</li>
    </ul>","5","","","","","","",""
"","","","","","psychophysics","234","393652","0.0-13.0-58.0","977261","","868","","","","","","","","","","","2","key","2","28.862068965517242","640","250","1","100"
"","","","","","html-keyboard-response","235","393740","0.0-13.0-59.0","977261","","87","","","","","","","","","","
    <p>How confident are you in your response? Press the corresponding keys from 1 to 5 based on your experience</p>
    <ul id=""confidence-levels"">
      <li id=""conf-1"">1: Not at all confident</li>
      <li id=""conf-2"">2: Slightly confident</li>
      <li id=""conf-3"">3: Somewhat confident</li>
      <li id=""conf-4"">4: Very confident</li>
      <li id=""conf-5"">5: Completely confident</li>
    </ul>","5","","","","","","",""
"","","","","","psychophysics","236","394743","0.0-13.0-60.0","977261","","999","","","","","","","","","","","2","key","2","29.424242424242426","640","250","1","150"
"","","","","","html-keyboard-response","237","394827","0.0-13.0-61.0","977261","","82","","","","","","","","","","
    <p>How confident are you in your response? Press the corresponding keys from 1 to 5 based on your experience</p>
    <ul id=""confidence-levels"">
      <li id=""conf-1"">1: Not at all confident</li>
      <li id=""conf-2"">2: Slightly confident</li>
      <li id=""conf-3"">3: Somewhat confident</li>
      <li id=""conf-4"">4: Very confident</li>
      <li id=""conf-5"">5: Completely confident</li>
    </ul>","5","","","","","","",""
"","","","","","psychophysics","238","395838","0.0-13.0-62.0","977261","","1004","","","","","","","","","","","2","key","2","29.424242424242426","640","250","1","300"
"","","","","","html-keyboard-response","239","396071","0.0-13.0-63.0","977261","","232","","","","","","","","","","
    <p>How confident are you in your response? Press the corresponding keys from 1 to 5 based on your experience</p>
    <ul id=""confidence-levels"">
      <li id=""conf-1"">1: Not at all confident</li>
      <li id=""conf-2"">2: Slightly confident</li>
      <li id=""conf-3"">3: Somewhat confident</li>
      <li id=""conf-4"">4: Very confident</li>
      <li id=""conf-5"">5: Completely confident</li>
    </ul>","2","","","","","","",""
"","","","","","psychophysics","240","397004","0.0-13.0-64.0","977261","","927","","","","","","","","","","","2","key","2","29.161290322580644","640","250","1","150"
"","","","","","html-keyboard-response","241","397057","0.0-13.0-65.0","977261","","53","","","","","","","","","","
    <p>How confident are you in your response? Press the corresponding keys from 1 to 5 based on your experience</p>
    <ul id=""confidence-levels"">
      <li id=""conf-1"">1: Not at all confident</li>
      <li id=""conf-2"">2: Slightly confident</li>
      <li id=""conf-3"">3: Somewhat confident</li>
      <li id=""conf-4"">4: Very confident</li>
      <li id=""conf-5"">5: Completely confident</li>
    </ul>","5","","","","","","",""
"","","","","","psychophysics","242","398238","0.0-13.0-66.0","977261","","1176","","","","","","","","","","","2","key","2","29.894736842105264","640","250","1","300"
"","","","","","html-keyboard-response","243","398281","0.0-13.0-67.0","977261","","42","","","","","","","","","","
    <p>How confident are you in your response? Press the corresponding keys from 1 to 5 based on your experience</p>
    <ul id=""confidence-levels"">
      <li id=""conf-1"">1: Not at all confident</li>
      <li id=""conf-2"">2: Slightly confident</li>
      <li id=""conf-3"">3: Somewhat confident</li>
      <li id=""conf-4"">4: Very confident</li>
      <li id=""conf-5"">5: Completely confident</li>
    </ul>","5","","","","","","",""
"","","","","","psychophysics","244","399156","0.0-13.0-68.0","977261","","870","","","","","","","","","","","2","key","2","28.75862068965517","640","250","1","80"
"","","","","","html-keyboard-response","245","399211","0.0-13.0-69.0","977261","","54","","","","","","","","","","
    <p>How confident are you in your response? Press the corresponding keys from 1 to 5 based on your experience</p>
    <ul id=""confidence-levels"">
      <li id=""conf-1"">1: Not at all confident</li>
      <li id=""conf-2"">2: Slightly confident</li>
      <li id=""conf-3"">3: Somewhat confident</li>
      <li id=""conf-4"">4: Very confident</li>
      <li id=""conf-5"">5: Completely confident</li>
    </ul>","5","","","","","","",""
"","","","","","psychophysics","246","400183","0.0-13.0-70.0","977261","","967","","","","","","","","","","","2","key","2","29.28125","640","250","1","100"
"","","","","","html-keyboard-response","247","400261","0.0-13.0-71.0","977261","","77","","","","","","","","","","
    <p>How confident are you in your response? Press the corresponding keys from 1 to 5 based on your experience</p>
    <ul id=""confidence-levels"">
      <li id=""conf-1"">1: Not at all confident</li>
      <li id=""conf-2"">2: Slightly confident</li>
      <li id=""conf-3"">3: Somewhat confident</li>
      <li id=""conf-4"">4: Very confident</li>
      <li id=""conf-5"">5: Completely confident</li>
    </ul>","5","","","","","","",""
"","","","","","psychophysics","248","401186","0.0-13.0-72.0","977261","","921","","","","","","","","","","","2","key","2","29.258064516129032","640","250","1","80"
"","","","","","html-keyboard-response","249","401238","0.0-13.0-73.0","977261","","51","","","","","","","","","","
    <p>How confident are you in your response? Press the corresponding keys from 1 to 5 based on your experience</p>
    <ul id=""confidence-levels"">
      <li id=""conf-1"">1: Not at all confident</li>
      <li id=""conf-2"">2: Slightly confident</li>
      <li id=""conf-3"">3: Somewhat confident</li>
      <li id=""conf-4"">4: Very confident</li>
      <li id=""conf-5"">5: Completely confident</li>
    </ul>","5","","","","","","",""
"","","","","","psychophysics","250","402131","0.0-13.0-74.0","977261","","889","","","","","","","","","","","2","key","2","28.8","640","250","1","100"
"","","","","","html-keyboard-response","251","402258","0.0-13.0-75.0","977261","","126","","","","","","","","","","
    <p>How confident are you in your response? Press the corresponding keys from 1 to 5 based on your experience</p>
    <ul id=""confidence-levels"">
      <li id=""conf-1"">1: Not at all confident</li>
      <li id=""conf-2"">2: Slightly confident</li>
      <li id=""conf-3"">3: Somewhat confident</li>
      <li id=""conf-4"">4: Very confident</li>
      <li id=""conf-5"">5: Completely confident</li>
    </ul>","5","","","","","","",""
"","","","","","psychophysics","252","403207","0.0-13.0-76.0","977261","","943","","","","","","","","","","","2","key","2","29.129032258064516","640","250","1","50"
"","","","","","html-keyboard-response","253","403258","0.0-13.0-77.0","977261","","50","","","","","","","","","","
    <p>How confident are you in your response? Press the corresponding keys from 1 to 5 based on your experience</p>
    <ul id=""confidence-levels"">
      <li id=""conf-1"">1: Not at all confident</li>
      <li id=""conf-2"">2: Slightly confident</li>
      <li id=""conf-3"">3: Somewhat confident</li>
      <li id=""conf-4"">4: Very confident</li>
      <li id=""conf-5"">5: Completely confident</li>
    </ul>","5","","","","","","",""
"","","","","","psychophysics","254","404124","0.0-13.0-78.0","977261","","862","","","","","","","","","","","2","key","2","29","640","250","1","25"
"","","","","","html-keyboard-response","255","404156","0.0-13.0-79.0","977261","","31","","","","","","","","","","
    <p>How confident are you in your response? Press the corresponding keys from 1 to 5 based on your experience</p>
    <ul id=""confidence-levels"">
      <li id=""conf-1"">1: Not at all confident</li>
      <li id=""conf-2"">2: Slightly confident</li>
      <li id=""conf-3"">3: Somewhat confident</li>
      <li id=""conf-4"">4: Very confident</li>
      <li id=""conf-5"">5: Completely confident</li>
    </ul>","5","","","","","","",""
"","","","","","psychophysics","256","405265","0.0-13.0-80.0","977261","","1105","","","","","","","","","","","2","key","2","31.38235294117647","640","250","1","25"
"","","","","","html-keyboard-response","257","405299","0.0-13.0-81.0","977261","","33","","","","","","","","","","
    <p>How confident are you in your response? Press the corresponding keys from 1 to 5 based on your experience</p>
    <ul id=""confidence-levels"">
      <li id=""conf-1"">1: Not at all confident</li>
      <li id=""conf-2"">2: Slightly confident</li>
      <li id=""conf-3"">3: Somewhat confident</li>
      <li id=""conf-4"">4: Very confident</li>
      <li id=""conf-5"">5: Completely confident</li>
    </ul>","5","","","","","","",""
"","","","","","psychophysics","258","406298","0.0-13.0-82.0","977261","","993","","","","","","","","","","","2","key","2","29.272727272727273","640","250","1","80"
"","","","","","html-keyboard-response","259","406374","0.0-13.0-83.0","977261","","75","","","","","","","","","","
    <p>How confident are you in your response? Press the corresponding keys from 1 to 5 based on your experience</p>
    <ul id=""confidence-levels"">
      <li id=""conf-1"">1: Not at all confident</li>
      <li id=""conf-2"">2: Slightly confident</li>
      <li id=""conf-3"">3: Somewhat confident</li>
      <li id=""conf-4"">4: Very confident</li>
      <li id=""conf-5"">5: Completely confident</li>
    </ul>","5","","","","","","",""
"","","","","","psychophysics","260","407656","0.0-13.0-84.0","977261","","1278","","","","","","","","","","","2","key","2","30.170731707317074","640","250","1","300"
"","","","","","html-keyboard-response","261","407721","0.0-13.0-85.0","977261","","64","","","","","","","","","","
    <p>How confident are you in your response? Press the corresponding keys from 1 to 5 based on your experience</p>
    <ul id=""confidence-levels"">
      <li id=""conf-1"">1: Not at all confident</li>
      <li id=""conf-2"">2: Slightly confident</li>
      <li id=""conf-3"">3: Somewhat confident</li>
      <li id=""conf-4"">4: Very confident</li>
      <li id=""conf-5"">5: Completely confident</li>
    </ul>","5","","","","","","",""
"","","","","","psychophysics","262","408692","0.0-13.0-86.0","977261","","967","","","","","","","","","","","2","key","2","29.34375","640","250","1","25"
"","","","","","html-keyboard-response","263","408756","0.0-13.0-87.0","977261","","63","","","","","","","","","","
    <p>How confident are you in your response? Press the corresponding keys from 1 to 5 based on your experience</p>
    <ul id=""confidence-levels"">
      <li id=""conf-1"">1: Not at all confident</li>
      <li id=""conf-2"">2: Slightly confident</li>
      <li id=""conf-3"">3: Somewhat confident</li>
      <li id=""conf-4"">4: Very confident</li>
      <li id=""conf-5"">5: Completely confident</li>
    </ul>","5","","","","","","",""
"","","","","","psychophysics","264","409884","0.0-13.0-88.0","977261","","1123","","","","","","","","","","","2","key","2","29.89189189189189","640","250","1","200"
"","","","","","html-keyboard-response","265","409922","0.0-13.0-89.0","977261","","37","","","","","","","","","","
    <p>How confident are you in your response? Press the corresponding keys from 1 to 5 based on your experience</p>
    <ul id=""confidence-levels"">
      <li id=""conf-1"">1: Not at all confident</li>
      <li id=""conf-2"">2: Slightly confident</li>
      <li id=""conf-3"">3: Somewhat confident</li>
      <li id=""conf-4"">4: Very confident</li>
      <li id=""conf-5"">5: Completely confident</li>
    </ul>","5","","","","","","",""
"","","","","","psychophysics","266","411503","0.0-13.0-90.0","977261","","1577","","","","","","","","","","","1","key","1","30.686274509803923","640","250","1","200"
"","","","","","html-keyboard-response","267","412260","0.0-13.0-91.0","977261","","755","","","","","","","","","","
    <p>How confident are you in your response? Press the corresponding keys from 1 to 5 based on your experience</p>
    <ul id=""confidence-levels"">
      <li id=""conf-1"">1: Not at all confident</li>
      <li id=""conf-2"">2: Slightly confident</li>
      <li id=""conf-3"">3: Somewhat confident</li>
      <li id=""conf-4"">4: Very confident</li>
      <li id=""conf-5"">5: Completely confident</li>
    </ul>","5","","","","","","",""
"","","","","","psychophysics","268","413326","0.0-13.0-92.0","977261","","1060","","","","","","","","","","","2","key","2","29.65714285714286","640","250","1","200"
"","","","","","html-keyboard-response","269","413434","0.0-13.0-93.0","977261","","107","","","","","","","","","","
    <p>How confident are you in your response? Press the corresponding keys from 1 to 5 based on your experience</p>
    <ul id=""confidence-levels"">
      <li id=""conf-1"">1: Not at all confident</li>
      <li id=""conf-2"">2: Slightly confident</li>
      <li id=""conf-3"">3: Somewhat confident</li>
      <li id=""conf-4"">4: Very confident</li>
      <li id=""conf-5"">5: Completely confident</li>
    </ul>","5","","","","","","",""
"","","","","","psychophysics","270","414397","0.0-13.0-94.0","977261","","958","","","","","","","","","","","2","key","2","29.28125","640","250","1","200"
"","","","","","html-keyboard-response","271","414473","0.0-13.0-95.0","977261","","75","","","","","","","","","","
    <p>How confident are you in your response? Press the corresponding keys from 1 to 5 based on your experience</p>
    <ul id=""confidence-levels"">
      <li id=""conf-1"">1: Not at all confident</li>
      <li id=""conf-2"">2: Slightly confident</li>
      <li id=""conf-3"">3: Somewhat confident</li>
      <li id=""conf-4"">4: Very confident</li>
      <li id=""conf-5"">5: Completely confident</li>
    </ul>","5","","","","","","",""
"","","","","","psychophysics","272","415361","0.0-13.0-96.0","977261","","884","","","","","","","","","","","2","key","2","28.866666666666667","640","250","1","50"
"","","","","","html-keyboard-response","273","415457","0.0-13.0-97.0","977261","","95","","","","","","","","","","
    <p>How confident are you in your response? Press the corresponding keys from 1 to 5 based on your experience</p>
    <ul id=""confidence-levels"">
      <li id=""conf-1"">1: Not at all confident</li>
      <li id=""conf-2"">2: Slightly confident</li>
      <li id=""conf-3"">3: Somewhat confident</li>
      <li id=""conf-4"">4: Very confident</li>
      <li id=""conf-5"">5: Completely confident</li>
    </ul>","5","","","","","","",""
"","","","","","html-keyboard-response","274","418781","0.0-14.0","977261","","3323","","","","","","","","","","Your average response time is 568.327 ms You are doing great"," ","","","","","","",""
"","","","","","survey-text","275","504284","0.0-15.0","977261","","85490","","","","","","","","","","","{""EasyToUnderstand"":""no"",""Suggestions"":""Actually, I am not sure I need to tell the time of the black circle or +."",""Interface"":""It's fine."",""Perception"":""yes""}","","","","","","",""
"","","","","","html-keyboard-response","276","509287","0.0-16.0","977261","","null","","","","","","","","","","You have successfully completed all the trials. Thank you for your time. Goodbye :)","null","","","","","","",""
