"success","timeout","failed_images","failed_audio","failed_video","trial_type","trial_index","time_elapsed","internal_node_id","participant_id","view_history","rt","item_width_mm","item_height_mm","item_width_px","px2mm","view_dist_mm","item_width_deg","px2deg","win_width_deg","win_height_deg","stimulus","response","response_type","key_press","avg_frame_time","center_x","center_y","correct_response"
"true","false","[]","[]","[]","preload","0","35","0.0-0.0","436411","","","","","","","","","","","","","","","","","","",""
"","","","","","instructions","1","7298","0.0-1.0","436411","[{""page_index"":0,""viewing_time"":4624},{""page_index"":1,""viewing_time"":1382},{""page_index"":2,""viewing_time"":1255}]","7262","","","","","","","","","","","","","","","","",""
"true","","","","","fullscreen","2","10819","0.0-2.0","436411","","","","","","","","","","","","","","","","","","",""
"","","","","","virtual-chinrest","3","39327","0.0-3.0","436411","","28507","85.6","53.98","402","4.7","568.67","8.608313102297677","46.69904489100201","32.89146498788366","18.50144905568456","","","","","","","",""
"","","","","","html-keyboard-response","4","40566","0.0-4.0","436411","","1237","","","","","","","","","","This is just trial run, press Space bar to continue"," ","","","","","",""
"","","","","","psychophysics","5","45081","0.0-5.0-0.0","436411","","4505","","","","","","","","","","","0","key","0","16.660516605166052","768","250","0"
"","","","","","psychophysics","6","49288","0.0-5.0-1.0","436411","","4199","","","","","","","","","","","1","key","1","16.657370517928285","768","250","1"
"","","","","","psychophysics","7","53094","0.0-5.0-2.0","436411","","3796","","","","","","","","","","","0","key","0","16.657894736842106","768","250","0"
"","","","","","psychophysics","8","55534","0.0-5.0-3.0","436411","","2433","","","","","","","","","","","1","key","1","16.655172413793103","768","250","1"
"","","","","","psychophysics","9","57883","0.0-5.0-4.0","436411","","2346","","","","","","","","","","","1","key","1","16.664285714285715","768","250","1"
"","","","","","psychophysics","10","60443","0.0-5.0-5.0","436411","","2550","","","","","","","","","","","1","key","1","16.66013071895425","768","250","1"
"","","","","","psychophysics","11","67998","0.0-5.0-6.0","436411","","7551","","","","","","","","","","","2","key","2","16.65929203539823","768","250","1"
"","","","","","psychophysics","12","69428","0.0-5.0-7.0","436411","","1422","","","","","","","","","","","1","key","1","16.658823529411766","768","250","1"
"","","","","","html-keyboard-response","13","72705","0.0-6.0","436411","","3276","","","","","","","","","","You have successfully completed the pilot , Press Space bar to continue to main block of experiment"," ","","","","","",""
"","","","","","psychophysics","14","74237","0.0-7.0-0.0","436411","","1525","","","","","","","","","","","0","key","0","16.66304347826087","768","250","0"
"","","","","","html-keyboard-response","15","78635","0.0-7.0-1.0","436411","","4398","","","","","","","","","","
    <p>How confident are you in your response? Press the corresponding keys from 1 to 5 based on your experience</p>
    <ul id=""confidence-levels"">
      <li id=""conf-1"">1: Not at all confident</li>
      <li id=""conf-2"">2: Slightly confident</li>
      <li id=""conf-3"">3: Somewhat confident</li>
      <li id=""conf-4"">4: Very confident</li>
      <li id=""conf-5"">5: Completely confident</li>
    </ul>","4","","","","","",""
"","","","","","psychophysics","16","81145","0.0-7.0-2.0","436411","","2502","","","","","","","","","","","1","key","1","16.662251655629138","768","250","1"
"","","","","","html-keyboard-response","17","85173","0.0-7.0-3.0","436411","","4026","","","","","","","","","","
    <p>How confident are you in your response? Press the corresponding keys from 1 to 5 based on your experience</p>
    <ul id=""confidence-levels"">
      <li id=""conf-1"">1: Not at all confident</li>
      <li id=""conf-2"">2: Slightly confident</li>
      <li id=""conf-3"">3: Somewhat confident</li>
      <li id=""conf-4"">4: Very confident</li>
      <li id=""conf-5"">5: Completely confident</li>
    </ul>","4","","","","","",""
"","","","","","psychophysics","18","92549","0.0-7.0-4.0","436411","","7369","","","","","","","","","","","1","key","1","16.65837104072398","768","250","1"
"","","","","","html-keyboard-response","19","95453","0.0-7.0-5.0","436411","","2904","","","","","","","","","","
    <p>How confident are you in your response? Press the corresponding keys from 1 to 5 based on your experience</p>
    <ul id=""confidence-levels"">
      <li id=""conf-1"">1: Not at all confident</li>
      <li id=""conf-2"">2: Slightly confident</li>
      <li id=""conf-3"">3: Somewhat confident</li>
      <li id=""conf-4"">4: Very confident</li>
      <li id=""conf-5"">5: Completely confident</li>
    </ul>","2","","","","","",""
"","","","","","psychophysics","20","97224","0.0-7.0-6.0","436411","","1764","","","","","","","","","","","1","key","1","16.660377358490567","768","250","1"
"","","","","","html-keyboard-response","21","98756","0.0-7.0-7.0","436411","","1530","","","","","","","","","","
    <p>How confident are you in your response? Press the corresponding keys from 1 to 5 based on your experience</p>
    <ul id=""confidence-levels"">
      <li id=""conf-1"">1: Not at all confident</li>
      <li id=""conf-2"">2: Slightly confident</li>
      <li id=""conf-3"">3: Somewhat confident</li>
      <li id=""conf-4"">4: Very confident</li>
      <li id=""conf-5"">5: Completely confident</li>
    </ul>","3","","","","","",""
"","","","","","psychophysics","22","105640","0.0-7.0-8.0","436411","","6879","","","","","","","","","","","1","key","1","16.661016949152543","768","250","1"
"","","","","","html-keyboard-response","23","109734","0.0-7.0-9.0","436411","","4093","","","","","","","","","","
    <p>How confident are you in your response? Press the corresponding keys from 1 to 5 based on your experience</p>
    <ul id=""confidence-levels"">
      <li id=""conf-1"">1: Not at all confident</li>
      <li id=""conf-2"">2: Slightly confident</li>
      <li id=""conf-3"">3: Somewhat confident</li>
      <li id=""conf-4"">4: Very confident</li>
      <li id=""conf-5"">5: Completely confident</li>
    </ul>","3","","","","","",""
"","","","","","psychophysics","24","111572","0.0-7.0-10.0","436411","","1831","","","","","","","","","","","0","key","0","16.654545454545456","768","250","0"
"","","","","","html-keyboard-response","25","113122","0.0-7.0-11.0","436411","","1549","","","","","","","","","","
    <p>How confident are you in your response? Press the corresponding keys from 1 to 5 based on your experience</p>
    <ul id=""confidence-levels"">
      <li id=""conf-1"">1: Not at all confident</li>
      <li id=""conf-2"">2: Slightly confident</li>
      <li id=""conf-3"">3: Somewhat confident</li>
      <li id=""conf-4"">4: Very confident</li>
      <li id=""conf-5"">5: Completely confident</li>
    </ul>","5","","","","","",""
"","","","","","psychophysics","26","115240","0.0-7.0-12.0","436411","","2108","","","","","","","","","","","1","key","1","16.653543307086615","768","250","1"
"","","","","","html-keyboard-response","27","116303","0.0-7.0-13.0","436411","","1063","","","","","","","","","","
    <p>How confident are you in your response? Press the corresponding keys from 1 to 5 based on your experience</p>
    <ul id=""confidence-levels"">
      <li id=""conf-1"">1: Not at all confident</li>
      <li id=""conf-2"">2: Slightly confident</li>
      <li id=""conf-3"">3: Somewhat confident</li>
      <li id=""conf-4"">4: Very confident</li>
      <li id=""conf-5"">5: Completely confident</li>
    </ul>","3","","","","","",""
"","","","","","psychophysics","28","118916","0.0-7.0-14.0","436411","","2600","","","","","","","","","","","2","key","2","16.656050955414013","768","250","1"
"","","","","","html-keyboard-response","29","120347","0.0-7.0-15.0","436411","","1430","","","","","","","","","","
    <p>How confident are you in your response? Press the corresponding keys from 1 to 5 based on your experience</p>
    <ul id=""confidence-levels"">
      <li id=""conf-1"">1: Not at all confident</li>
      <li id=""conf-2"">2: Slightly confident</li>
      <li id=""conf-3"">3: Somewhat confident</li>
      <li id=""conf-4"">4: Very confident</li>
      <li id=""conf-5"">5: Completely confident</li>
    </ul>","3","","","","","",""
"","","","","","psychophysics","30","122728","0.0-7.0-16.0","436411","","2375","","","","","","","","","","","1","key","1","16.657342657342657","768","250","1"
"","","","","","html-keyboard-response","31","124972","0.0-7.0-17.0","436411","","2242","","","","","","","","","","
    <p>How confident are you in your response? Press the corresponding keys from 1 to 5 based on your experience</p>
    <ul id=""confidence-levels"">
      <li id=""conf-1"">1: Not at all confident</li>
      <li id=""conf-2"">2: Slightly confident</li>
      <li id=""conf-3"">3: Somewhat confident</li>
      <li id=""conf-4"">4: Very confident</li>
      <li id=""conf-5"">5: Completely confident</li>
    </ul>","4","","","","","",""
"","","","","","psychophysics","32","126619","0.0-7.0-18.0","436411","","1640","","","","","","","","","","","1","key","1","16.666666666666668","768","250","1"
"","","","","","html-keyboard-response","33","128005","0.0-7.0-19.0","436411","","1385","","","","","","","","","","
    <p>How confident are you in your response? Press the corresponding keys from 1 to 5 based on your experience</p>
    <ul id=""confidence-levels"">
      <li id=""conf-1"">1: Not at all confident</li>
      <li id=""conf-2"">2: Slightly confident</li>
      <li id=""conf-3"">3: Somewhat confident</li>
      <li id=""conf-4"">4: Very confident</li>
      <li id=""conf-5"">5: Completely confident</li>
    </ul>","3","","","","","",""
"","","","","","psychophysics","34","130733","0.0-7.0-20.0","436411","","2718","","","","","","","","","","","2","key","2","16.65644171779141","768","250","1"
"","","","","","html-keyboard-response","35","134127","0.0-7.0-21.0","436411","","3392","","","","","","","","","","
    <p>How confident are you in your response? Press the corresponding keys from 1 to 5 based on your experience</p>
    <ul id=""confidence-levels"">
      <li id=""conf-1"">1: Not at all confident</li>
      <li id=""conf-2"">2: Slightly confident</li>
      <li id=""conf-3"">3: Somewhat confident</li>
      <li id=""conf-4"">4: Very confident</li>
      <li id=""conf-5"">5: Completely confident</li>
    </ul>","4","","","","","",""
"","","","","","psychophysics","36","135572","0.0-7.0-22.0","436411","","1439","","","","","","","","","","","1","key","1","16.655172413793103","768","250","1"
"","","","","","html-keyboard-response","37","136393","0.0-7.0-23.0","436411","","819","","","","","","","","","","
    <p>How confident are you in your response? Press the corresponding keys from 1 to 5 based on your experience</p>
    <ul id=""confidence-levels"">
      <li id=""conf-1"">1: Not at all confident</li>
      <li id=""conf-2"">2: Slightly confident</li>
      <li id=""conf-3"">3: Somewhat confident</li>
      <li id=""conf-4"">4: Very confident</li>
      <li id=""conf-5"">5: Completely confident</li>
    </ul>","4","","","","","",""
"","","","","","psychophysics","38","138064","0.0-7.0-24.0","436411","","1663","","","","","","","","","","","0","key","0","16.67","768","250","0"
"","","","","","html-keyboard-response","39","142020","0.0-7.0-25.0","436411","","3956","","","","","","","","","","
    <p>How confident are you in your response? Press the corresponding keys from 1 to 5 based on your experience</p>
    <ul id=""confidence-levels"">
      <li id=""conf-1"">1: Not at all confident</li>
      <li id=""conf-2"">2: Slightly confident</li>
      <li id=""conf-3"">3: Somewhat confident</li>
      <li id=""conf-4"">4: Very confident</li>
      <li id=""conf-5"">5: Completely confident</li>
    </ul>","4","","","","","",""
"","","","","","psychophysics","40","144074","0.0-7.0-26.0","436411","","2047","","","","","","","","","","","1","key","1","16.658536585365855","768","250","1"
"","","","","","html-keyboard-response","41","144929","0.0-7.0-27.0","436411","","854","","","","","","","","","","
    <p>How confident are you in your response? Press the corresponding keys from 1 to 5 based on your experience</p>
    <ul id=""confidence-levels"">
      <li id=""conf-1"">1: Not at all confident</li>
      <li id=""conf-2"">2: Slightly confident</li>
      <li id=""conf-3"">3: Somewhat confident</li>
      <li id=""conf-4"">4: Very confident</li>
      <li id=""conf-5"">5: Completely confident</li>
    </ul>","3","","","","","",""
"","","","","","psychophysics","42","146260","0.0-7.0-28.0","436411","","1324","","","","","","","","","","","1","key","1","16.6625","768","250","1"
"","","","","","html-keyboard-response","43","148364","0.0-7.0-29.0","436411","","2103","","","","","","","","","","
    <p>How confident are you in your response? Press the corresponding keys from 1 to 5 based on your experience</p>
    <ul id=""confidence-levels"">
      <li id=""conf-1"">1: Not at all confident</li>
      <li id=""conf-2"">2: Slightly confident</li>
      <li id=""conf-3"">3: Somewhat confident</li>
      <li id=""conf-4"">4: Very confident</li>
      <li id=""conf-5"">5: Completely confident</li>
    </ul>","4","","","","","",""
"","","","","","psychophysics","44","150650","0.0-7.0-30.0","436411","","2278","","","","","","","","","","","1","key","1","16.656934306569344","768","250","1"
"","","","","","html-keyboard-response","45","152980","0.0-7.0-31.0","436411","","2322","","","","","","","","","","
    <p>How confident are you in your response? Press the corresponding keys from 1 to 5 based on your experience</p>
    <ul id=""confidence-levels"">
      <li id=""conf-1"">1: Not at all confident</li>
      <li id=""conf-2"">2: Slightly confident</li>
      <li id=""conf-3"">3: Somewhat confident</li>
      <li id=""conf-4"">4: Very confident</li>
      <li id=""conf-5"">5: Completely confident</li>
    </ul>","3","","","","","",""
"","","","","","psychophysics","46","154592","0.0-7.0-32.0","436411","","1605","","","","","","","","","","","1","key","1","16.65625","768","250","1"
"","","","","","html-keyboard-response","47","155960","0.0-7.0-33.0","436411","","1367","","","","","","","","","","
    <p>How confident are you in your response? Press the corresponding keys from 1 to 5 based on your experience</p>
    <ul id=""confidence-levels"">
      <li id=""conf-1"">1: Not at all confident</li>
      <li id=""conf-2"">2: Slightly confident</li>
      <li id=""conf-3"">3: Somewhat confident</li>
      <li id=""conf-4"">4: Very confident</li>
      <li id=""conf-5"">5: Completely confident</li>
    </ul>","4","","","","","",""
"","","","","","psychophysics","48","157305","0.0-7.0-34.0","436411","","1338","","","","","","","","","","","1","key","1","16.6625","768","250","1"
"","","","","","html-keyboard-response","49","160743","0.0-7.0-35.0","436411","","3438","","","","","","","","","","
    <p>How confident are you in your response? Press the corresponding keys from 1 to 5 based on your experience</p>
    <ul id=""confidence-levels"">
      <li id=""conf-1"">1: Not at all confident</li>
      <li id=""conf-2"">2: Slightly confident</li>
      <li id=""conf-3"">3: Somewhat confident</li>
      <li id=""conf-4"">4: Very confident</li>
      <li id=""conf-5"">5: Completely confident</li>
    </ul>","4","","","","","",""
"","","","","","psychophysics","50","161984","0.0-7.0-36.0","436411","","1234","","","","","","","","","","","0","key","0","16.66216216216216","768","250","0"
"","","","","","html-keyboard-response","51","162907","0.0-7.0-37.0","436411","","922","","","","","","","","","","
    <p>How confident are you in your response? Press the corresponding keys from 1 to 5 based on your experience</p>
    <ul id=""confidence-levels"">
      <li id=""conf-1"">1: Not at all confident</li>
      <li id=""conf-2"">2: Slightly confident</li>
      <li id=""conf-3"">3: Somewhat confident</li>
      <li id=""conf-4"">4: Very confident</li>
      <li id=""conf-5"">5: Completely confident</li>
    </ul>","5","","","","","",""
"","","","","","psychophysics","52","164777","0.0-7.0-38.0","436411","","1864","","","","","","","","","","","1","key","1","16.660714285714285","768","250","1"
"","","","","","html-keyboard-response","53","166607","0.0-7.0-39.0","436411","","1828","","","","","","","","","","
    <p>How confident are you in your response? Press the corresponding keys from 1 to 5 based on your experience</p>
    <ul id=""confidence-levels"">
      <li id=""conf-1"">1: Not at all confident</li>
      <li id=""conf-2"">2: Slightly confident</li>
      <li id=""conf-3"">3: Somewhat confident</li>
      <li id=""conf-4"">4: Very confident</li>
      <li id=""conf-5"">5: Completely confident</li>
    </ul>","4","","","","","",""
"","","","","","psychophysics","54","170375","0.0-7.0-40.0","436411","","3756","","","","","","","","","","","1","key","1","16.65929203539823","768","250","1"
"","","","","","html-keyboard-response","55","173810","0.0-7.0-41.0","436411","","3433","","","","","","","","","","
    <p>How confident are you in your response? Press the corresponding keys from 1 to 5 based on your experience</p>
    <ul id=""confidence-levels"">
      <li id=""conf-1"">1: Not at all confident</li>
      <li id=""conf-2"">2: Slightly confident</li>
      <li id=""conf-3"">3: Somewhat confident</li>
      <li id=""conf-4"">4: Very confident</li>
      <li id=""conf-5"">5: Completely confident</li>
    </ul>","3","","","","","",""
"","","","","","psychophysics","56","174871","0.0-7.0-42.0","436411","","1055","","","","","","","","","","","0","key","0","16.65625","768","250","0"
"","","","","","html-keyboard-response","57","175647","0.0-7.0-43.0","436411","","774","","","","","","","","","","
    <p>How confident are you in your response? Press the corresponding keys from 1 to 5 based on your experience</p>
    <ul id=""confidence-levels"">
      <li id=""conf-1"">1: Not at all confident</li>
      <li id=""conf-2"">2: Slightly confident</li>
      <li id=""conf-3"">3: Somewhat confident</li>
      <li id=""conf-4"">4: Very confident</li>
      <li id=""conf-5"">5: Completely confident</li>
    </ul>","5","","","","","",""
"","","","","","psychophysics","58","177457","0.0-7.0-44.0","436411","","1807","","","","","","","","","","","0","key","0","16.660550458715598","768","250","0"
"","","","","","html-keyboard-response","59","178181","0.0-7.0-45.0","436411","","723","","","","","","","","","","
    <p>How confident are you in your response? Press the corresponding keys from 1 to 5 based on your experience</p>
    <ul id=""confidence-levels"">
      <li id=""conf-1"">1: Not at all confident</li>
      <li id=""conf-2"">2: Slightly confident</li>
      <li id=""conf-3"">3: Somewhat confident</li>
      <li id=""conf-4"">4: Very confident</li>
      <li id=""conf-5"">5: Completely confident</li>
    </ul>","5","","","","","",""
"","","","","","psychophysics","60","180606","0.0-7.0-46.0","436411","","2419","","","","","","","","","","","1","key","1","16.65753424657534","768","250","1"
"","","","","","html-keyboard-response","61","181458","0.0-7.0-47.0","436411","","852","","","","","","","","","","
    <p>How confident are you in your response? Press the corresponding keys from 1 to 5 based on your experience</p>
    <ul id=""confidence-levels"">
      <li id=""conf-1"">1: Not at all confident</li>
      <li id=""conf-2"">2: Slightly confident</li>
      <li id=""conf-3"">3: Somewhat confident</li>
      <li id=""conf-4"">4: Very confident</li>
      <li id=""conf-5"">5: Completely confident</li>
    </ul>","3","","","","","",""
"","","","","","psychophysics","62","183040","0.0-7.0-48.0","436411","","1574","","","","","","","","","","","0","key","0","16.652631578947368","768","250","0"
"","","","","","html-keyboard-response","63","183719","0.0-7.0-49.0","436411","","677","","","","","","","","","","
    <p>How confident are you in your response? Press the corresponding keys from 1 to 5 based on your experience</p>
    <ul id=""confidence-levels"">
      <li id=""conf-1"">1: Not at all confident</li>
      <li id=""conf-2"">2: Slightly confident</li>
      <li id=""conf-3"">3: Somewhat confident</li>
      <li id=""conf-4"">4: Very confident</li>
      <li id=""conf-5"">5: Completely confident</li>
    </ul>","5","","","","","",""
"","","","","","psychophysics","64","185066","0.0-7.0-50.0","436411","","1341","","","","","","","","","","","0","key","0","16.666666666666668","768","250","0"
"","","","","","html-keyboard-response","65","185622","0.0-7.0-51.0","436411","","555","","","","","","","","","","
    <p>How confident are you in your response? Press the corresponding keys from 1 to 5 based on your experience</p>
    <ul id=""confidence-levels"">
      <li id=""conf-1"">1: Not at all confident</li>
      <li id=""conf-2"">2: Slightly confident</li>
      <li id=""conf-3"">3: Somewhat confident</li>
      <li id=""conf-4"">4: Very confident</li>
      <li id=""conf-5"">5: Completely confident</li>
    </ul>","5","","","","","",""
"","","","","","psychophysics","66","189904","0.0-7.0-52.0","436411","","4274","","","","","","","","","","","2","key","2","16.66147859922179","768","250","1"
"","","","","","html-keyboard-response","67","191309","0.0-7.0-53.0","436411","","1404","","","","","","","","","","
    <p>How confident are you in your response? Press the corresponding keys from 1 to 5 based on your experience</p>
    <ul id=""confidence-levels"">
      <li id=""conf-1"">1: Not at all confident</li>
      <li id=""conf-2"">2: Slightly confident</li>
      <li id=""conf-3"">3: Somewhat confident</li>
      <li id=""conf-4"">4: Very confident</li>
      <li id=""conf-5"">5: Completely confident</li>
    </ul>","3","","","","","",""
"","","","","","psychophysics","68","196648","0.0-7.0-54.0","436411","","5332","","","","","","","","","","","1","key","1","16.660436137071652","768","250","1"
"","","","","","html-keyboard-response","69","199883","0.0-7.0-55.0","436411","","3235","","","","","","","","","","
    <p>How confident are you in your response? Press the corresponding keys from 1 to 5 based on your experience</p>
    <ul id=""confidence-levels"">
      <li id=""conf-1"">1: Not at all confident</li>
      <li id=""conf-2"">2: Slightly confident</li>
      <li id=""conf-3"">3: Somewhat confident</li>
      <li id=""conf-4"">4: Very confident</li>
      <li id=""conf-5"">5: Completely confident</li>
    </ul>","3","","","","","",""
"","","","","","psychophysics","70","201373","0.0-7.0-56.0","436411","","1483","","","","","","","","","","","1","key","1","16.662921348314608","768","250","1"
"","","","","","html-keyboard-response","71","202324","0.0-7.0-57.0","436411","","950","","","","","","","","","","
    <p>How confident are you in your response? Press the corresponding keys from 1 to 5 based on your experience</p>
    <ul id=""confidence-levels"">
      <li id=""conf-1"">1: Not at all confident</li>
      <li id=""conf-2"">2: Slightly confident</li>
      <li id=""conf-3"">3: Somewhat confident</li>
      <li id=""conf-4"">4: Very confident</li>
      <li id=""conf-5"">5: Completely confident</li>
    </ul>","4","","","","","",""
"","","","","","psychophysics","72","204668","0.0-7.0-58.0","436411","","2336","","","","","","","","","","","2","key","2","16.65714285714286","768","250","1"
"","","","","","html-keyboard-response","73","206282","0.0-7.0-59.0","436411","","1613","","","","","","","","","","
    <p>How confident are you in your response? Press the corresponding keys from 1 to 5 based on your experience</p>
    <ul id=""confidence-levels"">
      <li id=""conf-1"">1: Not at all confident</li>
      <li id=""conf-2"">2: Slightly confident</li>
      <li id=""conf-3"">3: Somewhat confident</li>
      <li id=""conf-4"">4: Very confident</li>
      <li id=""conf-5"">5: Completely confident</li>
    </ul>","4","","","","","",""
"","","","","","psychophysics","74","207736","0.0-7.0-60.0","436411","","1446","","","","","","","","","","","1","key","1","16.655172413793103","768","250","1"
"","","","","","html-keyboard-response","75","219011","0.0-7.0-61.0","436411","","11274","","","","","","","","","","
    <p>How confident are you in your response? Press the corresponding keys from 1 to 5 based on your experience</p>
    <ul id=""confidence-levels"">
      <li id=""conf-1"">1: Not at all confident</li>
      <li id=""conf-2"">2: Slightly confident</li>
      <li id=""conf-3"">3: Somewhat confident</li>
      <li id=""conf-4"">4: Very confident</li>
      <li id=""conf-5"">5: Completely confident</li>
    </ul>","4","","","","","",""
"","","","","","psychophysics","76","220686","0.0-7.0-62.0","436411","","1669","","","","","","","","","","","2","key","2","16.653465346534652","768","250","1"
"","","","","","html-keyboard-response","77","221304","0.0-7.0-63.0","436411","","617","","","","","","","","","","
    <p>How confident are you in your response? Press the corresponding keys from 1 to 5 based on your experience</p>
    <ul id=""confidence-levels"">
      <li id=""conf-1"">1: Not at all confident</li>
      <li id=""conf-2"">2: Slightly confident</li>
      <li id=""conf-3"">3: Somewhat confident</li>
      <li id=""conf-4"">4: Very confident</li>
      <li id=""conf-5"">5: Completely confident</li>
    </ul>","4","","","","","",""
"","","","","","psychophysics","78","224199","0.0-7.0-64.0","436411","","2887","","","","","","","","","","","0","key","0","16.655172413793103","768","250","0"
"","","","","","html-keyboard-response","79","225381","0.0-7.0-65.0","436411","","1181","","","","","","","","","","
    <p>How confident are you in your response? Press the corresponding keys from 1 to 5 based on your experience</p>
    <ul id=""confidence-levels"">
      <li id=""conf-1"">1: Not at all confident</li>
      <li id=""conf-2"">2: Slightly confident</li>
      <li id=""conf-3"">3: Somewhat confident</li>
      <li id=""conf-4"">4: Very confident</li>
      <li id=""conf-5"">5: Completely confident</li>
    </ul>","3","","","","","",""
"","","","","","psychophysics","80","227604","0.0-7.0-66.0","436411","","2212","","","","","","","","","","","2","key","2","16.661654135338345","768","250","1"
"","","","","","html-keyboard-response","81","228261","0.0-7.0-67.0","436411","","656","","","","","","","","","","
    <p>How confident are you in your response? Press the corresponding keys from 1 to 5 based on your experience</p>
    <ul id=""confidence-levels"">
      <li id=""conf-1"">1: Not at all confident</li>
      <li id=""conf-2"">2: Slightly confident</li>
      <li id=""conf-3"">3: Somewhat confident</li>
      <li id=""conf-4"">4: Very confident</li>
      <li id=""conf-5"">5: Completely confident</li>
    </ul>","3","","","","","",""
"","","","","","psychophysics","82","230013","0.0-7.0-68.0","436411","","1743","","","","","","","","","","","1","key","1","16.65714285714286","768","250","1"
"","","","","","html-keyboard-response","83","231226","0.0-7.0-69.0","436411","","1212","","","","","","","","","","
    <p>How confident are you in your response? Press the corresponding keys from 1 to 5 based on your experience</p>
    <ul id=""confidence-levels"">
      <li id=""conf-1"">1: Not at all confident</li>
      <li id=""conf-2"">2: Slightly confident</li>
      <li id=""conf-3"">3: Somewhat confident</li>
      <li id=""conf-4"">4: Very confident</li>
      <li id=""conf-5"">5: Completely confident</li>
    </ul>","3","","","","","",""
"","","","","","psychophysics","84","233853","0.0-7.0-70.0","436411","","2623","","","","","","","","","","","1","key","1","16.656050955414013","768","250","1"
"","","","","","html-keyboard-response","85","237558","0.0-7.0-71.0","436411","","3704","","","","","","","","","","
    <p>How confident are you in your response? Press the corresponding keys from 1 to 5 based on your experience</p>
    <ul id=""confidence-levels"">
      <li id=""conf-1"">1: Not at all confident</li>
      <li id=""conf-2"">2: Slightly confident</li>
      <li id=""conf-3"">3: Somewhat confident</li>
      <li id=""conf-4"">4: Very confident</li>
      <li id=""conf-5"">5: Completely confident</li>
    </ul>","3","","","","","",""
"","","","","","psychophysics","86","238843","0.0-7.0-72.0","436411","","1279","","","","","","","","","","","0","key","0","16.662337662337663","768","250","0"
"","","","","","html-keyboard-response","87","243596","0.0-7.0-73.0","436411","","4752","","","","","","","","","","
    <p>How confident are you in your response? Press the corresponding keys from 1 to 5 based on your experience</p>
    <ul id=""confidence-levels"">
      <li id=""conf-1"">1: Not at all confident</li>
      <li id=""conf-2"">2: Slightly confident</li>
      <li id=""conf-3"">3: Somewhat confident</li>
      <li id=""conf-4"">4: Very confident</li>
      <li id=""conf-5"">5: Completely confident</li>
    </ul>","4","","","","","",""
"","","","","","psychophysics","88","245537","0.0-7.0-74.0","436411","","1936","","","","","","","","","","","2","key","2","16.655172413793103","768","250","1"
"","","","","","html-keyboard-response","89","245846","0.0-7.0-75.0","436411","","309","","","","","","","","","","
    <p>How confident are you in your response? Press the corresponding keys from 1 to 5 based on your experience</p>
    <ul id=""confidence-levels"">
      <li id=""conf-1"">1: Not at all confident</li>
      <li id=""conf-2"">2: Slightly confident</li>
      <li id=""conf-3"">3: Somewhat confident</li>
      <li id=""conf-4"">4: Very confident</li>
      <li id=""conf-5"">5: Completely confident</li>
    </ul>","3","","","","","",""
"","","","","","psychophysics","90","247482","0.0-7.0-76.0","436411","","1629","","","","","","","","","","","2","key","2","16.653061224489797","768","250","1"
"","","","","","html-keyboard-response","91","248026","0.0-7.0-77.0","436411","","543","","","","","","","","","","
    <p>How confident are you in your response? Press the corresponding keys from 1 to 5 based on your experience</p>
    <ul id=""confidence-levels"">
      <li id=""conf-1"">1: Not at all confident</li>
      <li id=""conf-2"">2: Slightly confident</li>
      <li id=""conf-3"">3: Somewhat confident</li>
      <li id=""conf-4"">4: Very confident</li>
      <li id=""conf-5"">5: Completely confident</li>
    </ul>","4","","","","","",""
"","","","","","psychophysics","92","249342","0.0-7.0-78.0","436411","","1309","","","","","","","","","","","1","key","1","16.658227848101266","768","250","1"
"","","","","","html-keyboard-response","93","250057","0.0-7.0-79.0","436411","","714","","","","","","","","","","
    <p>How confident are you in your response? Press the corresponding keys from 1 to 5 based on your experience</p>
    <ul id=""confidence-levels"">
      <li id=""conf-1"">1: Not at all confident</li>
      <li id=""conf-2"">2: Slightly confident</li>
      <li id=""conf-3"">3: Somewhat confident</li>
      <li id=""conf-4"">4: Very confident</li>
      <li id=""conf-5"">5: Completely confident</li>
    </ul>","3","","","","","",""
"","","","","","html-keyboard-response","94","265486","0.0-8.0","436411","","15429","","","","","","","","","","Your average response time is  2826.955 ms You are doing great"," ","","","","","",""
"","","","","","html-button-response","95","444147","0.0-9.0","436411","","178659","","","","","","","","","","<p>You have successfully completed one block of the experiment. The next part of the experiment can be started in <span id=""clock"">1:00</span> <br>You can take a break for a minute or more if you like and Press continue when you are ready","0","","","","","",""
"","","","","","psychophysics","96","446451","0.0-10.0-0.0","436411","","2295","","","","","","","","","","","2","key","2","16.654676258992804","768","250","2"
"","","","","","html-keyboard-response","97","449274","0.0-10.0-1.0","436411","","2821","","","","","","","","","","
    <p>How confident are you in your response? Press the corresponding keys from 1 to 5 based on your experience</p>
    <ul id=""confidence-levels"">
      <li id=""conf-1"">1: Not at all confident</li>
      <li id=""conf-2"">2: Slightly confident</li>
      <li id=""conf-3"">3: Somewhat confident</li>
      <li id=""conf-4"">4: Very confident</li>
      <li id=""conf-5"">5: Completely confident</li>
    </ul>","4","","","","","",""
"","","","","","psychophysics","98","450541","0.0-10.0-2.0","436411","","1260","","","","","","","","","","","2","key","2","16.657894736842106","768","250","2"
"","","","","","html-keyboard-response","99","450881","0.0-10.0-3.0","436411","","339","","","","","","","","","","
    <p>How confident are you in your response? Press the corresponding keys from 1 to 5 based on your experience</p>
    <ul id=""confidence-levels"">
      <li id=""conf-1"">1: Not at all confident</li>
      <li id=""conf-2"">2: Slightly confident</li>
      <li id=""conf-3"">3: Somewhat confident</li>
      <li id=""conf-4"">4: Very confident</li>
      <li id=""conf-5"">5: Completely confident</li>
    </ul>","4","","","","","",""
"","","","","","psychophysics","100","452582","0.0-10.0-4.0","436411","","1694","","","","","","","","","","","2","key","2","16.666666666666668","768","250","2"
"","","","","","html-keyboard-response","101","454061","0.0-10.0-5.0","436411","","1479","","","","","","","","","","
    <p>How confident are you in your response? Press the corresponding keys from 1 to 5 based on your experience</p>
    <ul id=""confidence-levels"">
      <li id=""conf-1"">1: Not at all confident</li>
      <li id=""conf-2"">2: Slightly confident</li>
      <li id=""conf-3"">3: Somewhat confident</li>
      <li id=""conf-4"">4: Very confident</li>
      <li id=""conf-5"">5: Completely confident</li>
    </ul>","4","","","","","",""
"","","","","","psychophysics","102","455559","0.0-10.0-6.0","436411","","1491","","","","","","","","","","","2","key","2","16.662921348314608","768","250","2"
"","","","","","html-keyboard-response","103","457009","0.0-10.0-7.0","436411","","1449","","","","","","","","","","
    <p>How confident are you in your response? Press the corresponding keys from 1 to 5 based on your experience</p>
    <ul id=""confidence-levels"">
      <li id=""conf-1"">1: Not at all confident</li>
      <li id=""conf-2"">2: Slightly confident</li>
      <li id=""conf-3"">3: Somewhat confident</li>
      <li id=""conf-4"">4: Very confident</li>
      <li id=""conf-5"">5: Completely confident</li>
    </ul>","4","","","","","",""
"","","","","","psychophysics","104","458361","0.0-10.0-8.0","436411","","1342","","","","","","","","","","","2","key","2","16.666666666666668","768","250","2"
"","","","","","html-keyboard-response","105","459158","0.0-10.0-9.0","436411","","796","","","","","","","","","","
    <p>How confident are you in your response? Press the corresponding keys from 1 to 5 based on your experience</p>
    <ul id=""confidence-levels"">
      <li id=""conf-1"">1: Not at all confident</li>
      <li id=""conf-2"">2: Slightly confident</li>
      <li id=""conf-3"">3: Somewhat confident</li>
      <li id=""conf-4"">4: Very confident</li>
      <li id=""conf-5"">5: Completely confident</li>
    </ul>","4","","","","","",""
"","","","","","psychophysics","106","460418","0.0-10.0-10.0","436411","","1254","","","","","","","","","","","2","key","2","16.666666666666668","768","250","2"
"","","","","","html-keyboard-response","107","461028","0.0-10.0-11.0","436411","","610","","","","","","","","","","
    <p>How confident are you in your response? Press the corresponding keys from 1 to 5 based on your experience</p>
    <ul id=""confidence-levels"">
      <li id=""conf-1"">1: Not at all confident</li>
      <li id=""conf-2"">2: Slightly confident</li>
      <li id=""conf-3"">3: Somewhat confident</li>
      <li id=""conf-4"">4: Very confident</li>
      <li id=""conf-5"">5: Completely confident</li>
    </ul>","4","","","","","",""
"","","","","","psychophysics","108","465200","0.0-10.0-12.0","436411","","4166","","","","","","","","","","","1","key","1","16.66","768","250","1"
"","","","","","html-keyboard-response","109","466596","0.0-10.0-13.0","436411","","1395","","","","","","","","","","
    <p>How confident are you in your response? Press the corresponding keys from 1 to 5 based on your experience</p>
    <ul id=""confidence-levels"">
      <li id=""conf-1"">1: Not at all confident</li>
      <li id=""conf-2"">2: Slightly confident</li>
      <li id=""conf-3"">3: Somewhat confident</li>
      <li id=""conf-4"">4: Very confident</li>
      <li id=""conf-5"">5: Completely confident</li>
    </ul>","2","","","","","",""
"","","","","","psychophysics","110","467925","0.0-10.0-14.0","436411","","1323","","","","","","","","","","","2","key","2","16.6625","768","250","2"
"","","","","","html-keyboard-response","111","468684","0.0-10.0-15.0","436411","","758","","","","","","","","","","
    <p>How confident are you in your response? Press the corresponding keys from 1 to 5 based on your experience</p>
    <ul id=""confidence-levels"">
      <li id=""conf-1"">1: Not at all confident</li>
      <li id=""conf-2"">2: Slightly confident</li>
      <li id=""conf-3"">3: Somewhat confident</li>
      <li id=""conf-4"">4: Very confident</li>
      <li id=""conf-5"">5: Completely confident</li>
    </ul>","4","","","","","",""
"","","","","","psychophysics","112","470092","0.0-10.0-16.0","436411","","1402","","","","","","","","","","","1","key","1","16.658823529411766","768","250","1"
"","","","","","html-keyboard-response","113","470885","0.0-10.0-17.0","436411","","792","","","","","","","","","","
    <p>How confident are you in your response? Press the corresponding keys from 1 to 5 based on your experience</p>
    <ul id=""confidence-levels"">
      <li id=""conf-1"">1: Not at all confident</li>
      <li id=""conf-2"">2: Slightly confident</li>
      <li id=""conf-3"">3: Somewhat confident</li>
      <li id=""conf-4"">4: Very confident</li>
      <li id=""conf-5"">5: Completely confident</li>
    </ul>","4","","","","","",""
"","","","","","psychophysics","114","472656","0.0-10.0-18.0","436411","","1764","","","","","","","","","","","2","key","2","16.654205607476637","768","250","1"
"","","","","","html-keyboard-response","115","473762","0.0-10.0-19.0","436411","","1105","","","","","","","","","","
    <p>How confident are you in your response? Press the corresponding keys from 1 to 5 based on your experience</p>
    <ul id=""confidence-levels"">
      <li id=""conf-1"">1: Not at all confident</li>
      <li id=""conf-2"">2: Slightly confident</li>
      <li id=""conf-3"">3: Somewhat confident</li>
      <li id=""conf-4"">4: Very confident</li>
      <li id=""conf-5"">5: Completely confident</li>
    </ul>","4","","","","","",""
"","","","","","psychophysics","116","475087","0.0-10.0-20.0","436411","","1319","","","","","","","","","","","2","key","2","16.65","768","250","2"
"","","","","","html-keyboard-response","117","475771","0.0-10.0-21.0","436411","","682","","","","","","","","","","
    <p>How confident are you in your response? Press the corresponding keys from 1 to 5 based on your experience</p>
    <ul id=""confidence-levels"">
      <li id=""conf-1"">1: Not at all confident</li>
      <li id=""conf-2"">2: Slightly confident</li>
      <li id=""conf-3"">3: Somewhat confident</li>
      <li id=""conf-4"">4: Very confident</li>
      <li id=""conf-5"">5: Completely confident</li>
    </ul>","4","","","","","",""
"","","","","","psychophysics","118","478632","0.0-10.0-22.0","436411","","2854","","","","","","","","","","","2","key","2","16.660818713450293","768","250","2"
"","","","","","html-keyboard-response","119","479495","0.0-10.0-23.0","436411","","862","","","","","","","","","","
    <p>How confident are you in your response? Press the corresponding keys from 1 to 5 based on your experience</p>
    <ul id=""confidence-levels"">
      <li id=""conf-1"">1: Not at all confident</li>
      <li id=""conf-2"">2: Slightly confident</li>
      <li id=""conf-3"">3: Somewhat confident</li>
      <li id=""conf-4"">4: Very confident</li>
      <li id=""conf-5"">5: Completely confident</li>
    </ul>","3","","","","","",""
"","","","","","psychophysics","120","481097","0.0-10.0-24.0","436411","","1589","","","","","","","","","","","1","key","1","16.666666666666668","768","250","1"
"","","","","","html-keyboard-response","121","481475","0.0-10.0-25.0","436411","","378","","","","","","","","","","
    <p>How confident are you in your response? Press the corresponding keys from 1 to 5 based on your experience</p>
    <ul id=""confidence-levels"">
      <li id=""conf-1"">1: Not at all confident</li>
      <li id=""conf-2"">2: Slightly confident</li>
      <li id=""conf-3"">3: Somewhat confident</li>
      <li id=""conf-4"">4: Very confident</li>
      <li id=""conf-5"">5: Completely confident</li>
    </ul>","4","","","","","",""
"","","","","","psychophysics","122","484066","0.0-10.0-26.0","436411","","2584","","","","","","","","","","","2","key","2","16.66025641025641","768","250","2"
"","","","","","html-keyboard-response","123","484429","0.0-10.0-27.0","436411","","361","","","","","","","","","","
    <p>How confident are you in your response? Press the corresponding keys from 1 to 5 based on your experience</p>
    <ul id=""confidence-levels"">
      <li id=""conf-1"">1: Not at all confident</li>
      <li id=""conf-2"">2: Slightly confident</li>
      <li id=""conf-3"">3: Somewhat confident</li>
      <li id=""conf-4"">4: Very confident</li>
      <li id=""conf-5"">5: Completely confident</li>
    </ul>","4","","","","","",""
"","","","","","psychophysics","124","486077","0.0-10.0-28.0","436411","","1641","","","","","","","","","","","2","key","2","16.656565656565657","768","250","2"
"","","","","","html-keyboard-response","125","486382","0.0-10.0-29.0","436411","","303","","","","","","","","","","
    <p>How confident are you in your response? Press the corresponding keys from 1 to 5 based on your experience</p>
    <ul id=""confidence-levels"">
      <li id=""conf-1"">1: Not at all confident</li>
      <li id=""conf-2"">2: Slightly confident</li>
      <li id=""conf-3"">3: Somewhat confident</li>
      <li id=""conf-4"">4: Very confident</li>
      <li id=""conf-5"">5: Completely confident</li>
    </ul>","4","","","","","",""
"","","","","","psychophysics","126","488593","0.0-10.0-30.0","436411","","2204","","","","","","","","","","","1","key","1","16.65909090909091","768","250","1"
"","","","","","html-keyboard-response","127","489379","0.0-10.0-31.0","436411","","786","","","","","","","","","","
    <p>How confident are you in your response? Press the corresponding keys from 1 to 5 based on your experience</p>
    <ul id=""confidence-levels"">
      <li id=""conf-1"">1: Not at all confident</li>
      <li id=""conf-2"">2: Slightly confident</li>
      <li id=""conf-3"">3: Somewhat confident</li>
      <li id=""conf-4"">4: Very confident</li>
      <li id=""conf-5"">5: Completely confident</li>
    </ul>","2","","","","","",""
"","","","","","psychophysics","128","493316","0.0-10.0-32.0","436411","","3931","","","","","","","","","","","2","key","2","16.661016949152543","768","250","2"
"","","","","","html-keyboard-response","129","494954","0.0-10.0-33.0","436411","","1637","","","","","","","","","","
    <p>How confident are you in your response? Press the corresponding keys from 1 to 5 based on your experience</p>
    <ul id=""confidence-levels"">
      <li id=""conf-1"">1: Not at all confident</li>
      <li id=""conf-2"">2: Slightly confident</li>
      <li id=""conf-3"">3: Somewhat confident</li>
      <li id=""conf-4"">4: Very confident</li>
      <li id=""conf-5"">5: Completely confident</li>
    </ul>","4","","","","","",""
"","","","","","psychophysics","130","496504","0.0-10.0-34.0","436411","","1544","","","","","","","","","","","1","key","1","16.666666666666668","768","250","1"
"","","","","","html-keyboard-response","131","497154","0.0-10.0-35.0","436411","","648","","","","","","","","","","
    <p>How confident are you in your response? Press the corresponding keys from 1 to 5 based on your experience</p>
    <ul id=""confidence-levels"">
      <li id=""conf-1"">1: Not at all confident</li>
      <li id=""conf-2"">2: Slightly confident</li>
      <li id=""conf-3"">3: Somewhat confident</li>
      <li id=""conf-4"">4: Very confident</li>
      <li id=""conf-5"">5: Completely confident</li>
    </ul>","4","","","","","",""
"","","","","","psychophysics","132","498463","0.0-10.0-36.0","436411","","1302","","","","","","","","","","","2","key","2","16.658227848101266","768","250","2"
"","","","","","html-keyboard-response","133","499090","0.0-10.0-37.0","436411","","626","","","","","","","","","","
    <p>How confident are you in your response? Press the corresponding keys from 1 to 5 based on your experience</p>
    <ul id=""confidence-levels"">
      <li id=""conf-1"">1: Not at all confident</li>
      <li id=""conf-2"">2: Slightly confident</li>
      <li id=""conf-3"">3: Somewhat confident</li>
      <li id=""conf-4"">4: Very confident</li>
      <li id=""conf-5"">5: Completely confident</li>
    </ul>","4","","","","","",""
"","","","","","psychophysics","134","500323","0.0-10.0-38.0","436411","","1227","","","","","","","","","","","2","key","2","16.671232876712327","768","250","2"
"","","","","","html-keyboard-response","135","500965","0.0-10.0-39.0","436411","","641","","","","","","","","","","
    <p>How confident are you in your response? Press the corresponding keys from 1 to 5 based on your experience</p>
    <ul id=""confidence-levels"">
      <li id=""conf-1"">1: Not at all confident</li>
      <li id=""conf-2"">2: Slightly confident</li>
      <li id=""conf-3"">3: Somewhat confident</li>
      <li id=""conf-4"">4: Very confident</li>
      <li id=""conf-5"">5: Completely confident</li>
    </ul>","4","","","","","",""
"","","","","","psychophysics","136","502247","0.0-10.0-40.0","436411","","1275","","","","","","","","","","","2","key","2","16.662337662337663","768","250","2"
"","","","","","html-keyboard-response","137","502794","0.0-10.0-41.0","436411","","545","","","","","","","","","","
    <p>How confident are you in your response? Press the corresponding keys from 1 to 5 based on your experience</p>
    <ul id=""confidence-levels"">
      <li id=""conf-1"">1: Not at all confident</li>
      <li id=""conf-2"">2: Slightly confident</li>
      <li id=""conf-3"">3: Somewhat confident</li>
      <li id=""conf-4"">4: Very confident</li>
      <li id=""conf-5"">5: Completely confident</li>
    </ul>","4","","","","","",""
"","","","","","psychophysics","138","504044","0.0-10.0-42.0","436411","","1243","","","","","","","","","","","2","key","2","16.653333333333332","768","250","2"
"","","","","","html-keyboard-response","139","504503","0.0-10.0-43.0","436411","","458","","","","","","","","","","
    <p>How confident are you in your response? Press the corresponding keys from 1 to 5 based on your experience</p>
    <ul id=""confidence-levels"">
      <li id=""conf-1"">1: Not at all confident</li>
      <li id=""conf-2"">2: Slightly confident</li>
      <li id=""conf-3"">3: Somewhat confident</li>
      <li id=""conf-4"">4: Very confident</li>
      <li id=""conf-5"">5: Completely confident</li>
    </ul>","4","","","","","",""
"","","","","","psychophysics","140","505941","0.0-10.0-44.0","436411","","1431","","","","","","","","","","","1","key","1","16.655172413793103","768","250","1"
"","","","","","html-keyboard-response","141","506379","0.0-10.0-45.0","436411","","435","","","","","","","","","","
    <p>How confident are you in your response? Press the corresponding keys from 1 to 5 based on your experience</p>
    <ul id=""confidence-levels"">
      <li id=""conf-1"">1: Not at all confident</li>
      <li id=""conf-2"">2: Slightly confident</li>
      <li id=""conf-3"">3: Somewhat confident</li>
      <li id=""conf-4"">4: Very confident</li>
      <li id=""conf-5"">5: Completely confident</li>
    </ul>","4","","","","","",""
"","","","","","psychophysics","142","507900","0.0-10.0-46.0","436411","","1514","","","","","","","","","","","2","key","2","16.65934065934066","768","250","2"
"","","","","","html-keyboard-response","143","508242","0.0-10.0-47.0","436411","","342","","","","","","","","","","
    <p>How confident are you in your response? Press the corresponding keys from 1 to 5 based on your experience</p>
    <ul id=""confidence-levels"">
      <li id=""conf-1"">1: Not at all confident</li>
      <li id=""conf-2"">2: Slightly confident</li>
      <li id=""conf-3"">3: Somewhat confident</li>
      <li id=""conf-4"">4: Very confident</li>
      <li id=""conf-5"">5: Completely confident</li>
    </ul>","4","","","","","",""
"","","","","","psychophysics","144","509641","0.0-10.0-48.0","436411","","1393","","","","","","","","","","","1","key","1","16.666666666666668","768","250","2"
"","","","","","html-keyboard-response","145","514127","0.0-10.0-49.0","436411","","4485","","","","","","","","","","
    <p>How confident are you in your response? Press the corresponding keys from 1 to 5 based on your experience</p>
    <ul id=""confidence-levels"">
      <li id=""conf-1"">1: Not at all confident</li>
      <li id=""conf-2"">2: Slightly confident</li>
      <li id=""conf-3"">3: Somewhat confident</li>
      <li id=""conf-4"">4: Very confident</li>
      <li id=""conf-5"">5: Completely confident</li>
    </ul>","2","","","","","",""
"","","","","","psychophysics","146","515591","0.0-10.0-50.0","436411","","1457","","","","","","","","","","","2","key","2","16.65909090909091","768","250","2"
"","","","","","html-keyboard-response","147","516068","0.0-10.0-51.0","436411","","477","","","","","","","","","","
    <p>How confident are you in your response? Press the corresponding keys from 1 to 5 based on your experience</p>
    <ul id=""confidence-levels"">
      <li id=""conf-1"">1: Not at all confident</li>
      <li id=""conf-2"">2: Slightly confident</li>
      <li id=""conf-3"">3: Somewhat confident</li>
      <li id=""conf-4"">4: Very confident</li>
      <li id=""conf-5"">5: Completely confident</li>
    </ul>","4","","","","","",""
"","","","","","psychophysics","148","517408","0.0-10.0-52.0","436411","","1334","","","","","","","","","","","1","key","1","16.6625","768","250","1"
"","","","","","html-keyboard-response","149","517724","0.0-10.0-53.0","436411","","314","","","","","","","","","","
    <p>How confident are you in your response? Press the corresponding keys from 1 to 5 based on your experience</p>
    <ul id=""confidence-levels"">
      <li id=""conf-1"">1: Not at all confident</li>
      <li id=""conf-2"">2: Slightly confident</li>
      <li id=""conf-3"">3: Somewhat confident</li>
      <li id=""conf-4"">4: Very confident</li>
      <li id=""conf-5"">5: Completely confident</li>
    </ul>","4","","","","","",""
"","","","","","psychophysics","150","518791","0.0-10.0-54.0","436411","","1060","","","","","","","","","","","2","key","2","16.671875","768","250","2"
"","","","","","html-keyboard-response","151","519132","0.0-10.0-55.0","436411","","340","","","","","","","","","","
    <p>How confident are you in your response? Press the corresponding keys from 1 to 5 based on your experience</p>
    <ul id=""confidence-levels"">
      <li id=""conf-1"">1: Not at all confident</li>
      <li id=""conf-2"">2: Slightly confident</li>
      <li id=""conf-3"">3: Somewhat confident</li>
      <li id=""conf-4"">4: Very confident</li>
      <li id=""conf-5"">5: Completely confident</li>
    </ul>","4","","","","","",""
"","","","","","psychophysics","152","520327","0.0-10.0-56.0","436411","","1188","","","","","","","","","","","1","key","1","16.661971830985916","768","250","1"
"","","","","","html-keyboard-response","153","520580","0.0-10.0-57.0","436411","","253","","","","","","","","","","
    <p>How confident are you in your response? Press the corresponding keys from 1 to 5 based on your experience</p>
    <ul id=""confidence-levels"">
      <li id=""conf-1"">1: Not at all confident</li>
      <li id=""conf-2"">2: Slightly confident</li>
      <li id=""conf-3"">3: Somewhat confident</li>
      <li id=""conf-4"">4: Very confident</li>
      <li id=""conf-5"">5: Completely confident</li>
    </ul>","4","","","","","",""
"","","","","","psychophysics","154","521974","0.0-10.0-58.0","436411","","1380","","","","","","","","","","","2","key","2","16.662650602409638","768","250","1"
"","","","","","html-keyboard-response","155","522193","0.0-10.0-59.0","436411","","218","","","","","","","","","","
    <p>How confident are you in your response? Press the corresponding keys from 1 to 5 based on your experience</p>
    <ul id=""confidence-levels"">
      <li id=""conf-1"">1: Not at all confident</li>
      <li id=""conf-2"">2: Slightly confident</li>
      <li id=""conf-3"">3: Somewhat confident</li>
      <li id=""conf-4"">4: Very confident</li>
      <li id=""conf-5"">5: Completely confident</li>
    </ul>","4","","","","","",""
"","","","","","psychophysics","156","523342","0.0-10.0-60.0","436411","","1143","","","","","","","","","","","2","key","2","16.666666666666668","768","250","2"
"","","","","","html-keyboard-response","157","523552","0.0-10.0-61.0","436411","","209","","","","","","","","","","
    <p>How confident are you in your response? Press the corresponding keys from 1 to 5 based on your experience</p>
    <ul id=""confidence-levels"">
      <li id=""conf-1"">1: Not at all confident</li>
      <li id=""conf-2"">2: Slightly confident</li>
      <li id=""conf-3"">3: Somewhat confident</li>
      <li id=""conf-4"">4: Very confident</li>
      <li id=""conf-5"">5: Completely confident</li>
    </ul>","4","","","","","",""
"","","","","","psychophysics","158","524740","0.0-10.0-62.0","436411","","1181","","","","","","","","","","","1","key","1","16.661971830985916","768","250","1"
"","","","","","html-keyboard-response","159","524964","0.0-10.0-63.0","436411","","223","","","","","","","","","","
    <p>How confident are you in your response? Press the corresponding keys from 1 to 5 based on your experience</p>
    <ul id=""confidence-levels"">
      <li id=""conf-1"">1: Not at all confident</li>
      <li id=""conf-2"">2: Slightly confident</li>
      <li id=""conf-3"">3: Somewhat confident</li>
      <li id=""conf-4"">4: Very confident</li>
      <li id=""conf-5"">5: Completely confident</li>
    </ul>","4","","","","","",""
"","","","","","psychophysics","160","527652","0.0-10.0-64.0","436411","","2680","","","","","","","","","","","1","key","1","16.658385093167702","768","250","1"
"","","","","","html-keyboard-response","161","528052","0.0-10.0-65.0","436411","","400","","","","","","","","","","
    <p>How confident are you in your response? Press the corresponding keys from 1 to 5 based on your experience</p>
    <ul id=""confidence-levels"">
      <li id=""conf-1"">1: Not at all confident</li>
      <li id=""conf-2"">2: Slightly confident</li>
      <li id=""conf-3"">3: Somewhat confident</li>
      <li id=""conf-4"">4: Very confident</li>
      <li id=""conf-5"">5: Completely confident</li>
    </ul>","4","","","","","",""
"","","","","","psychophysics","162","529245","0.0-10.0-66.0","436411","","1189","","","","","","","","","","","2","key","2","16.666666666666668","768","250","2"
"","","","","","html-keyboard-response","163","529514","0.0-10.0-67.0","436411","","268","","","","","","","","","","
    <p>How confident are you in your response? Press the corresponding keys from 1 to 5 based on your experience</p>
    <ul id=""confidence-levels"">
      <li id=""conf-1"">1: Not at all confident</li>
      <li id=""conf-2"">2: Slightly confident</li>
      <li id=""conf-3"">3: Somewhat confident</li>
      <li id=""conf-4"">4: Very confident</li>
      <li id=""conf-5"">5: Completely confident</li>
    </ul>","4","","","","","",""
"","","","","","psychophysics","164","530638","0.0-10.0-68.0","436411","","1117","","","","","","","","","","","2","key","2","16.65671641791045","768","250","2"
"","","","","","html-keyboard-response","165","531009","0.0-10.0-69.0","436411","","369","","","","","","","","","","
    <p>How confident are you in your response? Press the corresponding keys from 1 to 5 based on your experience</p>
    <ul id=""confidence-levels"">
      <li id=""conf-1"">1: Not at all confident</li>
      <li id=""conf-2"">2: Slightly confident</li>
      <li id=""conf-3"">3: Somewhat confident</li>
      <li id=""conf-4"">4: Very confident</li>
      <li id=""conf-5"">5: Completely confident</li>
    </ul>","4","","","","","",""
"","","","","","psychophysics","166","532464","0.0-10.0-70.0","436411","","1449","","","","","","","","","","","2","key","2","16.666666666666668","768","250","2"
"","","","","","html-keyboard-response","167","532764","0.0-10.0-71.0","436411","","299","","","","","","","","","","
    <p>How confident are you in your response? Press the corresponding keys from 1 to 5 based on your experience</p>
    <ul id=""confidence-levels"">
      <li id=""conf-1"">1: Not at all confident</li>
      <li id=""conf-2"">2: Slightly confident</li>
      <li id=""conf-3"">3: Somewhat confident</li>
      <li id=""conf-4"">4: Very confident</li>
      <li id=""conf-5"">5: Completely confident</li>
    </ul>","4","","","","","",""
"","","","","","psychophysics","168","537075","0.0-10.0-72.0","436411","","4303","","","","","","","","","","","1","key","1","16.656370656370655","768","250","1"
"","","","","","html-keyboard-response","169","538438","0.0-10.0-73.0","436411","","1361","","","","","","","","","","
    <p>How confident are you in your response? Press the corresponding keys from 1 to 5 based on your experience</p>
    <ul id=""confidence-levels"">
      <li id=""conf-1"">1: Not at all confident</li>
      <li id=""conf-2"">2: Slightly confident</li>
      <li id=""conf-3"">3: Somewhat confident</li>
      <li id=""conf-4"">4: Very confident</li>
      <li id=""conf-5"">5: Completely confident</li>
    </ul>","4","","","","","",""
"","","","","","psychophysics","170","539581","0.0-10.0-74.0","436411","","1135","","","","","","","","","","","2","key","2","16.647058823529413","768","250","2"
"","","","","","html-keyboard-response","171","539888","0.0-10.0-75.0","436411","","306","","","","","","","","","","
    <p>How confident are you in your response? Press the corresponding keys from 1 to 5 based on your experience</p>
    <ul id=""confidence-levels"">
      <li id=""conf-1"">1: Not at all confident</li>
      <li id=""conf-2"">2: Slightly confident</li>
      <li id=""conf-3"">3: Somewhat confident</li>
      <li id=""conf-4"">4: Very confident</li>
      <li id=""conf-5"">5: Completely confident</li>
    </ul>","4","","","","","",""
"","","","","","psychophysics","172","543291","0.0-10.0-76.0","436411","","3397","","","","","","","","","","","2","key","2","16.65686274509804","768","250","2"
"","","","","","html-keyboard-response","173","545863","0.0-10.0-77.0","436411","","2572","","","","","","","","","","
    <p>How confident are you in your response? Press the corresponding keys from 1 to 5 based on your experience</p>
    <ul id=""confidence-levels"">
      <li id=""conf-1"">1: Not at all confident</li>
      <li id=""conf-2"">2: Slightly confident</li>
      <li id=""conf-3"">3: Somewhat confident</li>
      <li id=""conf-4"">4: Very confident</li>
      <li id=""conf-5"">5: Completely confident</li>
    </ul>","3","","","","","",""
"","","","","","html-keyboard-response","174","549526","0.0-11.0","436411","","3660","","","","","","","","","","Your average response time is null ms You are doing great"," ","","","","","",""
"","","","","","html-button-response","175","614960","0.0-12.0","436411","","65430","","","","","","","","","","<p>You have successfully completed one block of the experiment. The next part of the experiment can be started in <span id=""clock"">1:00</span> <br>You can take a break for a minute or more if you like and Press continue when you are ready","0","","","","","",""
"","","","","","psychophysics","176","617737","0.0-13.0-0.0","436411","","2770","","","","","","","","","","","1","key","1","16.662650602409638","768","250","1"
"","","","","","html-keyboard-response","177","618266","0.0-13.0-1.0","436411","","528","","","","","","","","","","
    <p>How confident are you in your response? Press the corresponding keys from 1 to 5 based on your experience</p>
    <ul id=""confidence-levels"">
      <li id=""conf-1"">1: Not at all confident</li>
      <li id=""conf-2"">2: Slightly confident</li>
      <li id=""conf-3"">3: Somewhat confident</li>
      <li id=""conf-4"">4: Very confident</li>
      <li id=""conf-5"">5: Completely confident</li>
    </ul>","1","","","","","",""
"","","","","","psychophysics","178","619615","0.0-13.0-2.0","436411","","1342","","","","","","","","","","","1","key","1","16.65432098765432","768","250","1"
"","","","","","html-keyboard-response","179","620228","0.0-13.0-3.0","436411","","611","","","","","","","","","","
    <p>How confident are you in your response? Press the corresponding keys from 1 to 5 based on your experience</p>
    <ul id=""confidence-levels"">
      <li id=""conf-1"">1: Not at all confident</li>
      <li id=""conf-2"">2: Slightly confident</li>
      <li id=""conf-3"">3: Somewhat confident</li>
      <li id=""conf-4"">4: Very confident</li>
      <li id=""conf-5"">5: Completely confident</li>
    </ul>","2","","","","","",""
"","","","","","psychophysics","180","623102","0.0-13.0-4.0","436411","","2867","","","","","","","","","","","1","key","1","16.656976744186046","768","250","1"
"","","","","","html-keyboard-response","181","623519","0.0-13.0-5.0","436411","","417","","","","","","","","","","
    <p>How confident are you in your response? Press the corresponding keys from 1 to 5 based on your experience</p>
    <ul id=""confidence-levels"">
      <li id=""conf-1"">1: Not at all confident</li>
      <li id=""conf-2"">2: Slightly confident</li>
      <li id=""conf-3"">3: Somewhat confident</li>
      <li id=""conf-4"">4: Very confident</li>
      <li id=""conf-5"">5: Completely confident</li>
    </ul>","3","","","","","",""
"","","","","","psychophysics","182","624859","0.0-13.0-6.0","436411","","1333","","","","","","","","","","","1","key","1","16.6625","768","250","1"
"","","","","","html-keyboard-response","183","625625","0.0-13.0-7.0","436411","","766","","","","","","","","","","
    <p>How confident are you in your response? Press the corresponding keys from 1 to 5 based on your experience</p>
    <ul id=""confidence-levels"">
      <li id=""conf-1"">1: Not at all confident</li>
      <li id=""conf-2"">2: Slightly confident</li>
      <li id=""conf-3"">3: Somewhat confident</li>
      <li id=""conf-4"">4: Very confident</li>
      <li id=""conf-5"">5: Completely confident</li>
    </ul>","3","","","","","",""
"","","","","","psychophysics","184","628702","0.0-13.0-8.0","436411","","3073","","","","","","","","","","","1","key","1","16.65945945945946","768","250","1"
"","","","","","html-keyboard-response","185","630987","0.0-13.0-9.0","436411","","2283","","","","","","","","","","
    <p>How confident are you in your response? Press the corresponding keys from 1 to 5 based on your experience</p>
    <ul id=""confidence-levels"">
      <li id=""conf-1"">1: Not at all confident</li>
      <li id=""conf-2"">2: Slightly confident</li>
      <li id=""conf-3"">3: Somewhat confident</li>
      <li id=""conf-4"">4: Very confident</li>
      <li id=""conf-5"">5: Completely confident</li>
    </ul>","2","","","","","",""
"","","","","","psychophysics","186","633166","0.0-13.0-10.0","436411","","2172","","","","","","","","","","","1","key","1","16.66412213740458","768","250","1"
"","","","","","html-keyboard-response","187","633456","0.0-13.0-11.0","436411","","289","","","","","","","","","","
    <p>How confident are you in your response? Press the corresponding keys from 1 to 5 based on your experience</p>
    <ul id=""confidence-levels"">
      <li id=""conf-1"">1: Not at all confident</li>
      <li id=""conf-2"">2: Slightly confident</li>
      <li id=""conf-3"">3: Somewhat confident</li>
      <li id=""conf-4"">4: Very confident</li>
      <li id=""conf-5"">5: Completely confident</li>
    </ul>","3","","","","","",""
"","","","","","psychophysics","188","635233","0.0-13.0-12.0","436411","","1770","","","","","","","","","","","1","key","1","16.66355140186916","768","250","1"
"","","","","","html-keyboard-response","189","635507","0.0-13.0-13.0","436411","","272","","","","","","","","","","
    <p>How confident are you in your response? Press the corresponding keys from 1 to 5 based on your experience</p>
    <ul id=""confidence-levels"">
      <li id=""conf-1"">1: Not at all confident</li>
      <li id=""conf-2"">2: Slightly confident</li>
      <li id=""conf-3"">3: Somewhat confident</li>
      <li id=""conf-4"">4: Very confident</li>
      <li id=""conf-5"">5: Completely confident</li>
    </ul>","3","","","","","",""
"","","","","","psychophysics","190","638265","0.0-13.0-14.0","436411","","2753","","","","","","","","","","","1","key","1","16.662650602409638","768","250","1"
"","","","","","html-keyboard-response","191","639070","0.0-13.0-15.0","436411","","802","","","","","","","","","","
    <p>How confident are you in your response? Press the corresponding keys from 1 to 5 based on your experience</p>
    <ul id=""confidence-levels"">
      <li id=""conf-1"">1: Not at all confident</li>
      <li id=""conf-2"">2: Slightly confident</li>
      <li id=""conf-3"">3: Somewhat confident</li>
      <li id=""conf-4"">4: Very confident</li>
      <li id=""conf-5"">5: Completely confident</li>
    </ul>","2","","","","","",""
"","","","","","psychophysics","192","642184","0.0-13.0-16.0","436411","","3108","","","","","","","","","","","1","key","1","16.663101604278076","768","250","1"
"","","","","","html-keyboard-response","193","643090","0.0-13.0-17.0","436411","","904","","","","","","","","","","
    <p>How confident are you in your response? Press the corresponding keys from 1 to 5 based on your experience</p>
    <ul id=""confidence-levels"">
      <li id=""conf-1"">1: Not at all confident</li>
      <li id=""conf-2"">2: Slightly confident</li>
      <li id=""conf-3"">3: Somewhat confident</li>
      <li id=""conf-4"">4: Very confident</li>
      <li id=""conf-5"">5: Completely confident</li>
    </ul>","4","","","","","",""
"","","","","","psychophysics","194","644375","0.0-13.0-18.0","436411","","1278","","","","","","","","","","","1","key","1","16.662337662337663","768","250","1"
"","","","","","html-keyboard-response","195","644695","0.0-13.0-19.0","436411","","319","","","","","","","","","","
    <p>How confident are you in your response? Press the corresponding keys from 1 to 5 based on your experience</p>
    <ul id=""confidence-levels"">
      <li id=""conf-1"">1: Not at all confident</li>
      <li id=""conf-2"">2: Slightly confident</li>
      <li id=""conf-3"">3: Somewhat confident</li>
      <li id=""conf-4"">4: Very confident</li>
      <li id=""conf-5"">5: Completely confident</li>
    </ul>","4","","","","","",""
"","","","","","psychophysics","196","646585","0.0-13.0-20.0","436411","","1884","","","","","","","","","","","1","key","1","16.663716814159294","768","250","1"
"","","","","","html-keyboard-response","197","646963","0.0-13.0-21.0","436411","","376","","","","","","","","","","
    <p>How confident are you in your response? Press the corresponding keys from 1 to 5 based on your experience</p>
    <ul id=""confidence-levels"">
      <li id=""conf-1"">1: Not at all confident</li>
      <li id=""conf-2"">2: Slightly confident</li>
      <li id=""conf-3"">3: Somewhat confident</li>
      <li id=""conf-4"">4: Very confident</li>
      <li id=""conf-5"">5: Completely confident</li>
    </ul>","4","","","","","",""
"","","","","","psychophysics","198","650650","0.0-13.0-22.0","436411","","3678","","","","","","","","","","","2","key","2","16.65610859728507","768","250","1"
"","","","","","html-keyboard-response","199","651729","0.0-13.0-23.0","436411","","1078","","","","","","","","","","
    <p>How confident are you in your response? Press the corresponding keys from 1 to 5 based on your experience</p>
    <ul id=""confidence-levels"">
      <li id=""conf-1"">1: Not at all confident</li>
      <li id=""conf-2"">2: Slightly confident</li>
      <li id=""conf-3"">3: Somewhat confident</li>
      <li id=""conf-4"">4: Very confident</li>
      <li id=""conf-5"">5: Completely confident</li>
    </ul>","2","","","","","",""
"","","","","","psychophysics","200","653578","0.0-13.0-24.0","436411","","1843","","","","","","","","","","","1","key","1","16.65765765765766","768","250","1"
"","","","","","html-keyboard-response","201","653852","0.0-13.0-25.0","436411","","274","","","","","","","","","","
    <p>How confident are you in your response? Press the corresponding keys from 1 to 5 based on your experience</p>
    <ul id=""confidence-levels"">
      <li id=""conf-1"">1: Not at all confident</li>
      <li id=""conf-2"">2: Slightly confident</li>
      <li id=""conf-3"">3: Somewhat confident</li>
      <li id=""conf-4"">4: Very confident</li>
      <li id=""conf-5"">5: Completely confident</li>
    </ul>","4","","","","","",""
"","","","","","psychophysics","202","656903","0.0-13.0-26.0","436411","","3043","","","","","","","","","","","1","key","1","16.661202185792348","768","250","1"
"","","","","","html-keyboard-response","203","657317","0.0-13.0-27.0","436411","","415","","","","","","","","","","
    <p>How confident are you in your response? Press the corresponding keys from 1 to 5 based on your experience</p>
    <ul id=""confidence-levels"">
      <li id=""conf-1"">1: Not at all confident</li>
      <li id=""conf-2"">2: Slightly confident</li>
      <li id=""conf-3"">3: Somewhat confident</li>
      <li id=""conf-4"">4: Very confident</li>
      <li id=""conf-5"">5: Completely confident</li>
    </ul>","2","","","","","",""
"","","","","","psychophysics","204","659883","0.0-13.0-28.0","436411","","2561","","","","","","","","","","","2","key","2","16.662337662337663","768","250","1"
"","","","","","html-keyboard-response","205","660129","0.0-13.0-29.0","436411","","245","","","","","","","","","","
    <p>How confident are you in your response? Press the corresponding keys from 1 to 5 based on your experience</p>
    <ul id=""confidence-levels"">
      <li id=""conf-1"">1: Not at all confident</li>
      <li id=""conf-2"">2: Slightly confident</li>
      <li id=""conf-3"">3: Somewhat confident</li>
      <li id=""conf-4"">4: Very confident</li>
      <li id=""conf-5"">5: Completely confident</li>
    </ul>","2","","","","","",""
"","","","","","psychophysics","206","661722","0.0-13.0-30.0","436411","","1587","","","","","","","","","","","1","key","1","16.65625","768","250","1"
"","","","","","html-keyboard-response","207","662040","0.0-13.0-31.0","436411","","317","","","","","","","","","","
    <p>How confident are you in your response? Press the corresponding keys from 1 to 5 based on your experience</p>
    <ul id=""confidence-levels"">
      <li id=""conf-1"">1: Not at all confident</li>
      <li id=""conf-2"">2: Slightly confident</li>
      <li id=""conf-3"">3: Somewhat confident</li>
      <li id=""conf-4"">4: Very confident</li>
      <li id=""conf-5"">5: Completely confident</li>
    </ul>","4","","","","","",""
"","","","","","psychophysics","208","664447","0.0-13.0-32.0","436411","","2401","","","","","","","","","","","2","key","2","16.65972222222222","768","250","1"
"","","","","","html-keyboard-response","209","664918","0.0-13.0-33.0","436411","","470","","","","","","","","","","
    <p>How confident are you in your response? Press the corresponding keys from 1 to 5 based on your experience</p>
    <ul id=""confidence-levels"">
      <li id=""conf-1"">1: Not at all confident</li>
      <li id=""conf-2"">2: Slightly confident</li>
      <li id=""conf-3"">3: Somewhat confident</li>
      <li id=""conf-4"">4: Very confident</li>
      <li id=""conf-5"">5: Completely confident</li>
    </ul>","3","","","","","",""
"","","","","","psychophysics","210","666645","0.0-13.0-34.0","436411","","1722","","","","","","","","","","","1","key","1","16.660194174757283","768","250","1"
"","","","","","html-keyboard-response","211","666906","0.0-13.0-35.0","436411","","260","","","","","","","","","","
    <p>How confident are you in your response? Press the corresponding keys from 1 to 5 based on your experience</p>
    <ul id=""confidence-levels"">
      <li id=""conf-1"">1: Not at all confident</li>
      <li id=""conf-2"">2: Slightly confident</li>
      <li id=""conf-3"">3: Somewhat confident</li>
      <li id=""conf-4"">4: Very confident</li>
      <li id=""conf-5"">5: Completely confident</li>
    </ul>","4","","","","","",""
"","","","","","psychophysics","212","668238","0.0-13.0-36.0","436411","","1320","","","","","","","","","","","1","key","1","16.6625","768","250","1"
"","","","","","html-keyboard-response","213","668547","0.0-13.0-37.0","436411","","308","","","","","","","","","","
    <p>How confident are you in your response? Press the corresponding keys from 1 to 5 based on your experience</p>
    <ul id=""confidence-levels"">
      <li id=""conf-1"">1: Not at all confident</li>
      <li id=""conf-2"">2: Slightly confident</li>
      <li id=""conf-3"">3: Somewhat confident</li>
      <li id=""conf-4"">4: Very confident</li>
      <li id=""conf-5"">5: Completely confident</li>
    </ul>","4","","","","","",""
"","","","","","psychophysics","214","670667","0.0-13.0-38.0","436411","","2112","","","","","","","","","","","2","key","2","16.6640625","768","250","1"
"","","","","","html-keyboard-response","215","671405","0.0-13.0-39.0","436411","","737","","","","","","","","","","
    <p>How confident are you in your response? Press the corresponding keys from 1 to 5 based on your experience</p>
    <ul id=""confidence-levels"">
      <li id=""conf-1"">1: Not at all confident</li>
      <li id=""conf-2"">2: Slightly confident</li>
      <li id=""conf-3"">3: Somewhat confident</li>
      <li id=""conf-4"">4: Very confident</li>
      <li id=""conf-5"">5: Completely confident</li>
    </ul>","3","","","","","",""
"","","","","","psychophysics","216","674177","0.0-13.0-40.0","436411","","2767","","","","","","","","","","","1","key","1","16.656626506024097","768","250","1"
"","","","","","html-keyboard-response","217","674426","0.0-13.0-41.0","436411","","249","","","","","","","","","","
    <p>How confident are you in your response? Press the corresponding keys from 1 to 5 based on your experience</p>
    <ul id=""confidence-levels"">
      <li id=""conf-1"">1: Not at all confident</li>
      <li id=""conf-2"">2: Slightly confident</li>
      <li id=""conf-3"">3: Somewhat confident</li>
      <li id=""conf-4"">4: Very confident</li>
      <li id=""conf-5"">5: Completely confident</li>
    </ul>","2","","","","","",""
"","","","","","psychophysics","218","675794","0.0-13.0-42.0","436411","","1363","","","","","","","","","","","1","key","1","16.658536585365855","768","250","1"
"","","","","","html-keyboard-response","219","676037","0.0-13.0-43.0","436411","","242","","","","","","","","","","
    <p>How confident are you in your response? Press the corresponding keys from 1 to 5 based on your experience</p>
    <ul id=""confidence-levels"">
      <li id=""conf-1"">1: Not at all confident</li>
      <li id=""conf-2"">2: Slightly confident</li>
      <li id=""conf-3"">3: Somewhat confident</li>
      <li id=""conf-4"">4: Very confident</li>
      <li id=""conf-5"">5: Completely confident</li>
    </ul>","4","","","","","",""
"","","","","","psychophysics","220","677925","0.0-13.0-44.0","436411","","1880","","","","","","","","","","","1","key","1","16.663716814159294","768","250","1"
"","","","","","html-keyboard-response","221","678339","0.0-13.0-45.0","436411","","412","","","","","","","","","","
    <p>How confident are you in your response? Press the corresponding keys from 1 to 5 based on your experience</p>
    <ul id=""confidence-levels"">
      <li id=""conf-1"">1: Not at all confident</li>
      <li id=""conf-2"">2: Slightly confident</li>
      <li id=""conf-3"">3: Somewhat confident</li>
      <li id=""conf-4"">4: Very confident</li>
      <li id=""conf-5"">5: Completely confident</li>
    </ul>","3","","","","","",""
"","","","","","psychophysics","222","681052","0.0-13.0-46.0","436411","","2706","","","","","","","","","","","1","key","1","16.662576687116566","768","250","1"
"","","","","","html-keyboard-response","223","681278","0.0-13.0-47.0","436411","","225","","","","","","","","","","
    <p>How confident are you in your response? Press the corresponding keys from 1 to 5 based on your experience</p>
    <ul id=""confidence-levels"">
      <li id=""conf-1"">1: Not at all confident</li>
      <li id=""conf-2"">2: Slightly confident</li>
      <li id=""conf-3"">3: Somewhat confident</li>
      <li id=""conf-4"">4: Very confident</li>
      <li id=""conf-5"">5: Completely confident</li>
    </ul>","4","","","","","",""
"","","","","","psychophysics","224","685857","0.0-13.0-48.0","436411","","4572","","","","","","","","","","","2","key","2","16.656934306569344","768","250","1"
"","","","","","html-keyboard-response","225","686055","0.0-13.0-49.0","436411","","198","","","","","","","","","","
    <p>How confident are you in your response? Press the corresponding keys from 1 to 5 based on your experience</p>
    <ul id=""confidence-levels"">
      <li id=""conf-1"">1: Not at all confident</li>
      <li id=""conf-2"">2: Slightly confident</li>
      <li id=""conf-3"">3: Somewhat confident</li>
      <li id=""conf-4"">4: Very confident</li>
      <li id=""conf-5"">5: Completely confident</li>
    </ul>","2","","","","","",""
"","","","","","psychophysics","226","689546","0.0-13.0-50.0","436411","","3487","","","","","","","","","","","2","key","2","16.66190476190476","768","250","1"
"","","","","","html-keyboard-response","227","689803","0.0-13.0-51.0","436411","","255","","","","","","","","","","
    <p>How confident are you in your response? Press the corresponding keys from 1 to 5 based on your experience</p>
    <ul id=""confidence-levels"">
      <li id=""conf-1"">1: Not at all confident</li>
      <li id=""conf-2"">2: Slightly confident</li>
      <li id=""conf-3"">3: Somewhat confident</li>
      <li id=""conf-4"">4: Very confident</li>
      <li id=""conf-5"">5: Completely confident</li>
    </ul>","3","","","","","",""
"","","","","","psychophysics","228","692674","0.0-13.0-52.0","436411","","2862","","","","","","","","","","","2","key","2","16.658959537572255","768","250","1"
"","","","","","html-keyboard-response","229","693163","0.0-13.0-53.0","436411","","487","","","","","","","","","","
    <p>How confident are you in your response? Press the corresponding keys from 1 to 5 based on your experience</p>
    <ul id=""confidence-levels"">
      <li id=""conf-1"">1: Not at all confident</li>
      <li id=""conf-2"">2: Slightly confident</li>
      <li id=""conf-3"">3: Somewhat confident</li>
      <li id=""conf-4"">4: Very confident</li>
      <li id=""conf-5"">5: Completely confident</li>
    </ul>","2","","","","","",""
"","","","","","psychophysics","230","694526","0.0-13.0-54.0","436411","","1355","","","","","","","","","","","1","key","1","16.658536585365855","768","250","1"
"","","","","","html-keyboard-response","231","695216","0.0-13.0-55.0","436411","","689","","","","","","","","","","
    <p>How confident are you in your response? Press the corresponding keys from 1 to 5 based on your experience</p>
    <ul id=""confidence-levels"">
      <li id=""conf-1"">1: Not at all confident</li>
      <li id=""conf-2"">2: Slightly confident</li>
      <li id=""conf-3"">3: Somewhat confident</li>
      <li id=""conf-4"">4: Very confident</li>
      <li id=""conf-5"">5: Completely confident</li>
    </ul>","3","","","","","",""
"","","","","","psychophysics","232","697224","0.0-13.0-56.0","436411","","2000","","","","","","","","","","","1","key","1","16.66115702479339","768","250","1"
"","","","","","html-keyboard-response","233","697458","0.0-13.0-57.0","436411","","233","","","","","","","","","","
    <p>How confident are you in your response? Press the corresponding keys from 1 to 5 based on your experience</p>
    <ul id=""confidence-levels"">
      <li id=""conf-1"">1: Not at all confident</li>
      <li id=""conf-2"">2: Slightly confident</li>
      <li id=""conf-3"">3: Somewhat confident</li>
      <li id=""conf-4"">4: Very confident</li>
      <li id=""conf-5"">5: Completely confident</li>
    </ul>","4","","","","","",""
"","","","","","psychophysics","234","698768","0.0-13.0-58.0","436411","","1305","","","","","","","","","","","1","key","1","16.653846153846153","768","250","1"
"","","","","","html-keyboard-response","235","699089","0.0-13.0-59.0","436411","","320","","","","","","","","","","
    <p>How confident are you in your response? Press the corresponding keys from 1 to 5 based on your experience</p>
    <ul id=""confidence-levels"">
      <li id=""conf-1"">1: Not at all confident</li>
      <li id=""conf-2"">2: Slightly confident</li>
      <li id=""conf-3"">3: Somewhat confident</li>
      <li id=""conf-4"">4: Very confident</li>
      <li id=""conf-5"">5: Completely confident</li>
    </ul>","4","","","","","",""
"","","","","","psychophysics","236","702040","0.0-13.0-60.0","436411","","2946","","","","","","","","","","","1","key","1","16.661016949152543","768","250","1"
"","","","","","html-keyboard-response","237","702247","0.0-13.0-61.0","436411","","207","","","","","","","","","","
    <p>How confident are you in your response? Press the corresponding keys from 1 to 5 based on your experience</p>
    <ul id=""confidence-levels"">
      <li id=""conf-1"">1: Not at all confident</li>
      <li id=""conf-2"">2: Slightly confident</li>
      <li id=""conf-3"">3: Somewhat confident</li>
      <li id=""conf-4"">4: Very confident</li>
      <li id=""conf-5"">5: Completely confident</li>
    </ul>","2","","","","","",""
"","","","","","psychophysics","238","705735","0.0-13.0-62.0","436411","","3483","","","","","","","","","","","1","key","1","16.66190476190476","768","250","1"
"","","","","","html-keyboard-response","239","705944","0.0-13.0-63.0","436411","","208","","","","","","","","","","
    <p>How confident are you in your response? Press the corresponding keys from 1 to 5 based on your experience</p>
    <ul id=""confidence-levels"">
      <li id=""conf-1"">1: Not at all confident</li>
      <li id=""conf-2"">2: Slightly confident</li>
      <li id=""conf-3"">3: Somewhat confident</li>
      <li id=""conf-4"">4: Very confident</li>
      <li id=""conf-5"">5: Completely confident</li>
    </ul>","4","","","","","",""
"","","","","","psychophysics","240","707708","0.0-13.0-64.0","436411","","1752","","","","","","","","","","","1","key","1","16.660377358490567","768","250","1"
"","","","","","html-keyboard-response","241","708032","0.0-13.0-65.0","436411","","324","","","","","","","","","","
    <p>How confident are you in your response? Press the corresponding keys from 1 to 5 based on your experience</p>
    <ul id=""confidence-levels"">
      <li id=""conf-1"">1: Not at all confident</li>
      <li id=""conf-2"">2: Slightly confident</li>
      <li id=""conf-3"">3: Somewhat confident</li>
      <li id=""conf-4"">4: Very confident</li>
      <li id=""conf-5"">5: Completely confident</li>
    </ul>","3","","","","","",""
"","","","","","psychophysics","242","709832","0.0-13.0-66.0","436411","","1792","","","","","","","","","","","2","key","2","16.666666666666668","768","250","1"
"","","","","","html-keyboard-response","243","710089","0.0-13.0-67.0","436411","","255","","","","","","","","","","
    <p>How confident are you in your response? Press the corresponding keys from 1 to 5 based on your experience</p>
    <ul id=""confidence-levels"">
      <li id=""conf-1"">1: Not at all confident</li>
      <li id=""conf-2"">2: Slightly confident</li>
      <li id=""conf-3"">3: Somewhat confident</li>
      <li id=""conf-4"">4: Very confident</li>
      <li id=""conf-5"">5: Completely confident</li>
    </ul>","2","","","","","",""
"","","","","","psychophysics","244","711443","0.0-13.0-68.0","436411","","1347","","","","","","","","","","","1","key","1","16.65432098765432","768","250","1"
"","","","","","html-keyboard-response","245","711722","0.0-13.0-69.0","436411","","277","","","","","","","","","","
    <p>How confident are you in your response? Press the corresponding keys from 1 to 5 based on your experience</p>
    <ul id=""confidence-levels"">
      <li id=""conf-1"">1: Not at all confident</li>
      <li id=""conf-2"">2: Slightly confident</li>
      <li id=""conf-3"">3: Somewhat confident</li>
      <li id=""conf-4"">4: Very confident</li>
      <li id=""conf-5"">5: Completely confident</li>
    </ul>","4","","","","","",""
"","","","","","psychophysics","246","714358","0.0-13.0-70.0","436411","","2633","","","","","","","","","","","1","key","1","16.658227848101266","768","250","1"
"","","","","","html-keyboard-response","247","714709","0.0-13.0-71.0","436411","","351","","","","","","","","","","
    <p>How confident are you in your response? Press the corresponding keys from 1 to 5 based on your experience</p>
    <ul id=""confidence-levels"">
      <li id=""conf-1"">1: Not at all confident</li>
      <li id=""conf-2"">2: Slightly confident</li>
      <li id=""conf-3"">3: Somewhat confident</li>
      <li id=""conf-4"">4: Very confident</li>
      <li id=""conf-5"">5: Completely confident</li>
    </ul>","3","","","","","",""
"","","","","","psychophysics","248","716066","0.0-13.0-72.0","436411","","1348","","","","","","","","","","","1","key","1","16.658536585365855","768","250","1"
"","","","","","html-keyboard-response","249","716256","0.0-13.0-73.0","436411","","189","","","","","","","","","","
    <p>How confident are you in your response? Press the corresponding keys from 1 to 5 based on your experience</p>
    <ul id=""confidence-levels"">
      <li id=""conf-1"">1: Not at all confident</li>
      <li id=""conf-2"">2: Slightly confident</li>
      <li id=""conf-3"">3: Somewhat confident</li>
      <li id=""conf-4"">4: Very confident</li>
      <li id=""conf-5"">5: Completely confident</li>
    </ul>","4","","","","","",""
"","","","","","psychophysics","250","718397","0.0-13.0-74.0","436411","","2131","","","","","","","","","","","2","key","2","16.65891472868217","768","250","1"
"","","","","","html-keyboard-response","251","719392","0.0-13.0-75.0","436411","","993","","","","","","","","","","
    <p>How confident are you in your response? Press the corresponding keys from 1 to 5 based on your experience</p>
    <ul id=""confidence-levels"">
      <li id=""conf-1"">1: Not at all confident</li>
      <li id=""conf-2"">2: Slightly confident</li>
      <li id=""conf-3"">3: Somewhat confident</li>
      <li id=""conf-4"">4: Very confident</li>
      <li id=""conf-5"">5: Completely confident</li>
    </ul>","2","","","","","",""
"","","","","","psychophysics","252","720561","0.0-13.0-76.0","436411","","1162","","","","","","","","","","","1","key","1","16.65714285714286","768","250","1"
"","","","","","html-keyboard-response","253","720842","0.0-13.0-77.0","436411","","280","","","","","","","","","","
    <p>How confident are you in your response? Press the corresponding keys from 1 to 5 based on your experience</p>
    <ul id=""confidence-levels"">
      <li id=""conf-1"">1: Not at all confident</li>
      <li id=""conf-2"">2: Slightly confident</li>
      <li id=""conf-3"">3: Somewhat confident</li>
      <li id=""conf-4"">4: Very confident</li>
      <li id=""conf-5"">5: Completely confident</li>
    </ul>","4","","","","","",""
"","","","","","psychophysics","254","723222","0.0-13.0-78.0","436411","","2375","","","","","","","","","","","2","key","2","16.661971830985916","768","250","1"
"","","","","","html-keyboard-response","255","723599","0.0-13.0-79.0","436411","","377","","","","","","","","","","
    <p>How confident are you in your response? Press the corresponding keys from 1 to 5 based on your experience</p>
    <ul id=""confidence-levels"">
      <li id=""conf-1"">1: Not at all confident</li>
      <li id=""conf-2"">2: Slightly confident</li>
      <li id=""conf-3"">3: Somewhat confident</li>
      <li id=""conf-4"">4: Very confident</li>
      <li id=""conf-5"">5: Completely confident</li>
    </ul>","2","","","","","",""
"","","","","","psychophysics","256","724867","0.0-13.0-80.0","436411","","1264","","","","","","","","","","","1","key","1","16.657894736842106","768","250","1"
"","","","","","html-keyboard-response","257","725133","0.0-13.0-81.0","436411","","265","","","","","","","","","","
    <p>How confident are you in your response? Press the corresponding keys from 1 to 5 based on your experience</p>
    <ul id=""confidence-levels"">
      <li id=""conf-1"">1: Not at all confident</li>
      <li id=""conf-2"">2: Slightly confident</li>
      <li id=""conf-3"">3: Somewhat confident</li>
      <li id=""conf-4"">4: Very confident</li>
      <li id=""conf-5"">5: Completely confident</li>
    </ul>","4","","","","","",""
"","","","","","psychophysics","258","726652","0.0-13.0-82.0","436411","","1512","","","","","","","","","","","1","key","1","16.65934065934066","768","250","1"
"","","","","","html-keyboard-response","259","727031","0.0-13.0-83.0","436411","","378","","","","","","","","","","
    <p>How confident are you in your response? Press the corresponding keys from 1 to 5 based on your experience</p>
    <ul id=""confidence-levels"">
      <li id=""conf-1"">1: Not at all confident</li>
      <li id=""conf-2"">2: Slightly confident</li>
      <li id=""conf-3"">3: Somewhat confident</li>
      <li id=""conf-4"">4: Very confident</li>
      <li id=""conf-5"">5: Completely confident</li>
    </ul>","4","","","","","",""
"","","","","","psychophysics","260","728393","0.0-13.0-84.0","436411","","1356","","","","","","","","","","","1","key","1","16.658536585365855","768","250","1"
"","","","","","html-keyboard-response","261","728985","0.0-13.0-85.0","436411","","591","","","","","","","","","","
    <p>How confident are you in your response? Press the corresponding keys from 1 to 5 based on your experience</p>
    <ul id=""confidence-levels"">
      <li id=""conf-1"">1: Not at all confident</li>
      <li id=""conf-2"">2: Slightly confident</li>
      <li id=""conf-3"">3: Somewhat confident</li>
      <li id=""conf-4"">4: Very confident</li>
      <li id=""conf-5"">5: Completely confident</li>
    </ul>","4","","","","","",""
"","","","","","psychophysics","262","730545","0.0-13.0-86.0","436411","","1553","","","","","","","","","","","1","key","1","16.659574468085108","768","250","1"
"","","","","","html-keyboard-response","263","730791","0.0-13.0-87.0","436411","","246","","","","","","","","","","
    <p>How confident are you in your response? Press the corresponding keys from 1 to 5 based on your experience</p>
    <ul id=""confidence-levels"">
      <li id=""conf-1"">1: Not at all confident</li>
      <li id=""conf-2"">2: Slightly confident</li>
      <li id=""conf-3"">3: Somewhat confident</li>
      <li id=""conf-4"">4: Very confident</li>
      <li id=""conf-5"">5: Completely confident</li>
    </ul>","4","","","","","",""
"","","","","","psychophysics","264","732632","0.0-13.0-88.0","436411","","1834","","","","","","","","","","","1","key","1","16.663636363636364","768","250","1"
"","","","","","html-keyboard-response","265","734059","0.0-13.0-89.0","436411","","1427","","","","","","","","","","
    <p>How confident are you in your response? Press the corresponding keys from 1 to 5 based on your experience</p>
    <ul id=""confidence-levels"">
      <li id=""conf-1"">1: Not at all confident</li>
      <li id=""conf-2"">2: Slightly confident</li>
      <li id=""conf-3"">3: Somewhat confident</li>
      <li id=""conf-4"">4: Very confident</li>
      <li id=""conf-5"">5: Completely confident</li>
    </ul>","2","","","","","",""
"","","","","","psychophysics","266","735649","0.0-13.0-90.0","436411","","1581","","","","","","","","","","","2","key","2","16.66315789473684","768","250","1"
"","","","","","html-keyboard-response","267","736112","0.0-13.0-91.0","436411","","462","","","","","","","","","","
    <p>How confident are you in your response? Press the corresponding keys from 1 to 5 based on your experience</p>
    <ul id=""confidence-levels"">
      <li id=""conf-1"">1: Not at all confident</li>
      <li id=""conf-2"">2: Slightly confident</li>
      <li id=""conf-3"">3: Somewhat confident</li>
      <li id=""conf-4"">4: Very confident</li>
      <li id=""conf-5"">5: Completely confident</li>
    </ul>","3","","","","","",""
"","","","","","psychophysics","268","741651","0.0-13.0-92.0","436411","","5531","","","","","","","","","","","2","key","2","16.66066066066066","768","250","1"
"","","","","","html-keyboard-response","269","744749","0.0-13.0-93.0","436411","","3096","","","","","","","","","","
    <p>How confident are you in your response? Press the corresponding keys from 1 to 5 based on your experience</p>
    <ul id=""confidence-levels"">
      <li id=""conf-1"">1: Not at all confident</li>
      <li id=""conf-2"">2: Slightly confident</li>
      <li id=""conf-3"">3: Somewhat confident</li>
      <li id=""conf-4"">4: Very confident</li>
      <li id=""conf-5"">5: Completely confident</li>
    </ul>","3","","","","","",""
"","","","","","psychophysics","270","746916","0.0-13.0-94.0","436411","","2160","","","","","","","","","","","2","key","2","16.661538461538463","768","250","1"
"","","","","","html-keyboard-response","271","747127","0.0-13.0-95.0","436411","","210","","","","","","","","","","
    <p>How confident are you in your response? Press the corresponding keys from 1 to 5 based on your experience</p>
    <ul id=""confidence-levels"">
      <li id=""conf-1"">1: Not at all confident</li>
      <li id=""conf-2"">2: Slightly confident</li>
      <li id=""conf-3"">3: Somewhat confident</li>
      <li id=""conf-4"">4: Very confident</li>
      <li id=""conf-5"">5: Completely confident</li>
    </ul>","2","","","","","",""
"","","","","","psychophysics","272","748540","0.0-13.0-96.0","436411","","1406","","","","","","","","","","","1","key","1","16.658823529411766","768","250","1"
"","","","","","html-keyboard-response","273","749204","0.0-13.0-97.0","436411","","662","","","","","","","","","","
    <p>How confident are you in your response? Press the corresponding keys from 1 to 5 based on your experience</p>
    <ul id=""confidence-levels"">
      <li id=""conf-1"">1: Not at all confident</li>
      <li id=""conf-2"">2: Slightly confident</li>
      <li id=""conf-3"">3: Somewhat confident</li>
      <li id=""conf-4"">4: Very confident</li>
      <li id=""conf-5"">5: Completely confident</li>
    </ul>","3","","","","","",""
"","","","","","html-keyboard-response","274","751375","0.0-14.0","436411","","2170","","","","","","","","","","Your average response time is 1365.908 ms You are doing great"," ","","","","","",""
"","","","","","survey-text","275","2037765","0.0-15.0","436411","","1286319","","","","","","","","","","","{""EasyToUnderstand"":""Yes. \nI guess this was avoided on purpose but it would be interesting to know, what exactly you are trying to study through this experiment before or after going through this. One can guess it is roughly about the influence of aural stimulus on visual cognition but knowing the exact scientific statement of your research/study would make me feel more involved."",""Suggestions"":""Maybe at the beginning, it can be shown how one blink and two blinks of the disc would actually look just for the subject's mental calibration.\nOverall, I liked the design and how most questions are addressed at the beginning itself."",""Interface"":""Very much. \nOne suggestion- Maybe during each block, it would be good if the progress bar at the top progresses with each question/answer. Or maybe, mention the trial number or the number of trials to go within each block. This is because while I was well into the first block, I began to wonder whether the study was actually progressing or stuck in a loop or something, and felt quite long. And this confusion also added to the avg response time calculated in the first block."",""Perception"":""At times.""}","","","","","",""
"","","","","","html-keyboard-response","276","2042767","0.0-16.0","436411","","null","","","","","","","","","","You have successfully completed all the trials. Thank you for your time. Goodbye :)","null","","","","","",""
